RT,accuracy,aff_lum,block_count,boxHeight,boxWidth,cat,catch_trial,comp,contrast_side,corrDirection,corrDirectionMask,correct_response,cutoff_warning_msg,dev_for_warning,durationFix1,durationFix2,durationFix3,eTimeSacc1,eTimeSacc2,eTimeSacc3,endX1,endX1Corr,endX1CorrDegrees,endX1CorrMask,endX1CorrMaskDegrees,endX1CorrMaskNorm,endX1CorrNorm,endX1CorrNormToContrast,endX1CorrNormToHandle,endX1Degrees,endX1Norm,endX1NormToContrast,endX1NormToHandle,endX2,endX2Corr,endX2CorrDegrees,endX2CorrMask,endX2CorrMaskDegrees,endX2CorrMaskNorm,endX2CorrNorm,endX2CorrNormToContrast,endX2CorrNormToHandle,endX2Degrees,endX2Norm,endX2NormToContrast,endX2NormToHandle,endX3,endX3Corr,endX3CorrDegrees,endX3CorrMask,endX3CorrMaskDegrees,endX3CorrMaskNorm,endX3CorrNorm,endX3CorrNormToContrast,endX3CorrNormToHandle,endX3Degrees,endX3Norm,endX3NormToContrast,endX3NormToHandle,endXRaw1,endXRaw2,endXRaw3,endY1,endY1Corr,endY1CorrNorm,endY1Degrees,endY1Norm,endY2,endY2Corr,endY2CorrNorm,endY2Degrees,endY2Norm,endY3,endY3Corr,endY3CorrNorm,endY3Degrees,endY3Norm,endYRaw1,endYRaw2,endYRaw3,eye_used,file,fixCount,gap,gazeDur,handle_side,jitter_dur,large_fix_col,large_fix_size,latin_square_letter,mask_side,max_dev_fix,max_dev_object,max_samples,min_samples_fix,min_samples_object,n_blink,object,outlier,overall_rep,picture_name,refixProb,rep,response,response_hand,rtFromLanding,rtFromStim,sTimeSacc1,sTimeSacc2,sTimeSacc3,saccCount,saccDur1,saccDur2,saccDur3,saccLandingTime1,saccLandingTime2,saccLandingTime3,saccLat1,saccLat2,saccLat3,scale,scale_item,scaled_height,scaled_width,startX1,startX1Corr,startX1CorrDegrees,startX1CorrMask,startX1CorrMaskDegrees,startX1CorrMaskNorm,startX1CorrNorm,startX1Degrees,startX1Norm,startX2,startX2Corr,startX2CorrDegrees,startX2CorrMask,startX2CorrMaskDegrees,startX2CorrMaskNorm,startX2CorrNorm,startX2Degrees,startX2Norm,startX3,startX3Corr,startX3CorrDegrees,startX3CorrMask,startX3CorrMaskDegrees,startX3CorrMaskNorm,startX3CorrNorm,startX3Degrees,startX3Norm,startXRaw1,startXRaw2,startXRaw3,startY1,startY1Corr,startY1CorrNorm,startY1Degrees,startY1Norm,startY2,startY2Corr,startY2CorrNorm,startY2Degrees,startY2Norm,startY3,startY3Corr,startY3CorrNorm,startY3Degrees,startY3Norm,startYRaw1,startYRaw2,startYRaw3,stimOnset,subject_parity,symm,timestampFixOnset,timestampResponse,trialId,trial_count,visual_field,xCoG,xCoGMask,xFix1,xFix2,xFix3,xStimNormal,yCoG,yCoGMask,yCoGMaskZero,yCoGZero,yFix1,yFix2,yFix3,yStimNormal,y_stim,y_stim_degrees,driftCorr,exp,heavySide,half,sacc_dir
830.753822085,1.0,control,0.0,64.3333333333,165.666666667,garage,no,incompatible,control, 'correction awayHandle', 'correction awayHandle',2.0,85.0,150.0,141,560,,20823162.0,20823323,,-17.3,-66.5380396484,-2.01630423177,-66.5380396484,-2.01630423177,-0.401638066288,-0.401638066288,,0.401638066288,-0.524242424242,-0.104426559356,,0.104426559356,13.8,-35.4380396484,-1.07387998935,-35.4380396484,-1.07387998935,-0.213911708139,-0.213911708139,,0.213911708139,0.418181818182,0.0832997987928,,-0.0832997987928,,,,,,,,,,,,,,494.7,525.8,,-12.0,-17.8504250274,-0.27746774654,-0.363636363636,-0.186528497409,5.5,-0.350425027403,-0.00544702115134,0.166666666667,0.0854922279793,,,,,,544.0,561.5,,undefined,00404.asc,2.0,zero,701.0,left,352.109656422,black,32.0,A,control,25.0,50.0,4000.0,50.0,50.0,0.0,hammer,0.0,1.0,asymm_garage_hammer,1.0,1.0,2.0,right,624.0,835.0,20823111.0,20823305,,2.0,51.0,18,,211.0,372,,160.0,354,,3.0,yes,180.0,240.0,6.7,-42.5380396484,-1.2890315045,-42.5380396484,-1.2890315045,-0.256768850997,-0.256768850997,0.20303030303,0.0404426559356,-27.2,-76.4380396484,-2.31630423177,-76.4380396484,-2.31630423177,-0.461396617596,-0.461396617596,-0.824242424242,-0.164185110664,,,,,,,,,,518.7,484.8,,-216.9,-222.750425027,-3.4624418398,-6.57272727273,-3.37150259067,23.8,17.9495749726,0.279008937398,0.721212121212,0.369948186528,,,,,,339.1,579.8,,20822951.0,even,asymm,20822591.0,20823786.0,10396.0,10.0,lower,49.2380396484,49.2380396484,-26.4,7.7,,462.761960352,561.850425027,561.850425027,5.8504250274,5.8504250274,192.3,186.6,,556.0,-172.0,-6.0,True,004B,right__,first,544.0
1304.79503852,1.0,control,0.0,42.6666666667,176.0,kitchen,no,compatible,control, 'correction smaller than 15', 'correction smaller than 15',1.0,85.0,150.0,264,407,400,20834087.0,20834375,20834804,8.4,-3.62626300639,-0.10988675777,-3.62626300639,-0.10988675777,-0.0206037670818,-0.0206037670818,,0.0206037670818,0.254545454545,0.0477272727273,,-0.0477272727273,46.3,34.2737369936,1.03859809072,34.2737369936,1.03859809072,0.194737142009,0.194737142009,,-0.194737142009,1.40303030303,0.263068181818,,-0.263068181818,-6.8,-18.8262630064,-0.570492818376,-18.8262630064,-0.570492818376,-0.106967403445,-0.106967403445,,0.106967403445,-0.206060606061,-0.0386363636364,,0.0386363636364,520.4,558.3,505.2,-55.5,-57.9647558943,-1.35854896627,-1.68181818182,-1.30078125,-6.9,-9.36475589433,-0.219486466273,-0.209090909091,-0.16171875,4.8,2.33524410567,0.0547322837266,0.145454545455,0.1125,541.5,590.1,601.8,undefined,00404.asc,3.0,overlap,1071.0,left,328.048635618,black,32.0,A,control,25.0,50.0,4000.0,50.0,50.0,0.0,spoon2,0.0,1.0,asymm_kitchen_spoon2,1.0,1.0,1.0,left,1015.0,1310.0,20834038.0,20834353,20834784,3.0,49.0,22,20,295.0,583,1012,246.0,561,992,3.0,yes,180.0,240.0,0.2,-11.8262630064,-0.358371606254,-11.8262630064,-0.358371606254,-0.0671946761727,-0.0671946761727,0.00606060606061,0.00113636363636,2.9,-9.12626300639,-0.276553424436,-9.12626300639,-0.276553424436,-0.0518537670818,-0.0518537670818,0.0878787878788,0.0164772727273,45.9,33.8737369936,1.02647687859,33.8737369936,1.02647687859,0.192464414736,0.192464414736,1.39090909091,0.260795454545,512.2,514.9,557.9,-225.6,-228.064755894,-5.34526771627,-6.83636363636,-5.2875,-15.9,-18.3647558943,-0.430423966273,-0.481818181818,-0.37265625,1.3,-1.16475589433,-0.0272989662734,0.0393939393939,0.03046875,371.4,581.1,598.3,20833792.0,even,asymm,20833452.0,20835102.0,10398.0,12.0,lower,12.0262630064,12.0262630064,2.3,43.9,-5.3,499.973736994,599.464755894,599.464755894,2.46475589433,2.46475589433,194.2,210.7,213.2,597.0,-213.0,-7.0,True,004B,right__,first,541.5
873.586563084,1.0,control,0.0,24.0,176.0,garage,no,compatible,control, 'correction towardsHandle', 'correction towardsHandle',2.0,85.0,150.0,749,,,20847006.0,,,-31.1,-55.6764355818,-1.6871647146,-55.6764355818,-1.6871647146,-0.316343383988,-0.316343383988,,-0.316343383988,-0.942424242424,-0.176704545455,,-0.176704545455,,,,,,,,,,,,,,,,,,,,,,,,,,,480.9,,,-21.8,-18.7027401217,-0.779280838402,-0.660606060606,-0.908333333333,,,,,,,,,,,560.2,,,undefined,00404.asc,1.0,zero,749.0,right,241.657912017,black,32.0,C,control,25.0,50.0,4000.0,50.0,50.0,0.0,chisel,0.0,2.0,asymm_garage_chisel,0.0,2.0,2.0,right,655.0,878.0,20846950.0,,,1.0,56.0,,,223.0,,,167.0,,,3.0,yes,180.0,240.0,-7.6,-32.1764355818,-0.97504350248,-32.1764355818,-0.97504350248,-0.182820656715,-0.182820656715,-0.230303030303,-0.0431818181818,,,,,,,,,,,,,,,,,,,504.4,,,-197.8,-194.702740122,-8.11261417174,-5.99393939394,-8.24166666667,,,,,,,,,,,384.2,,,20846783.0,even,asymm,20846533.0,20847661.0,10400.0,14.0,lower,24.5764355818,24.5764355818,-34.3,,,487.423564418,578.902740122,578.902740122,-3.09725987834,-3.09725987834,196.1,,,582.0,-198.0,-6.0,True,004B,right__,first,560.2
698.234451281,1.0,control,0.0,32.0,176.0,garage,no,incompatible,control, 'correction awayHandle', 'correction awayHandle',2.0,85.0,150.0,153,468,,20882376.0,20882552,,1.1,-20.0258078553,-0.606842662281,-20.0258078553,-0.606842662281,-0.113782999178,-0.113782999178,,0.113782999178,0.0333333333333,0.00625,,-0.00625,31.0,9.87419214474,0.29921794378,9.87419214474,0.29921794378,0.0561033644587,0.0561033644587,,-0.0561033644587,0.939393939394,0.176136363636,,-0.176136363636,,,,,,,,,,,,,,513.1,543.0,,0.9,-0.801833502613,-0.0250572969567,0.0272727272727,0.028125,-21.5,-23.2018335026,-0.725057296957,-0.651515151515,-0.671875,,,,,,202.9,180.5,,undefined,00404.asc,2.0,overlap,621.0,left,440.836921764,black,32.0,A,control,25.0,50.0,4000.0,50.0,50.0,0.0,wrench,0.0,2.0,asymm_garage_wrench,1.0,2.0,2.0,right,547.0,706.0,20882344.0,20882531,,2.0,32.0,21,,159.0,335,,127.0,314,,3.0,yes,180.0,240.0,6.1,-15.0258078553,-0.455327510766,-15.0258078553,-0.455327510766,-0.0853739082685,-0.0853739082685,0.184848484848,0.0346590909091,-4.7,-25.8258078553,-0.782600238038,-25.8258078553,-0.782600238038,-0.146737544632,-0.146737544632,-0.142424242424,-0.0267045454545,,,,,,,,,,518.1,507.3,,190.7,188.998166497,5.90619270304,5.77878787879,5.959375,-7.4,-9.10183350261,-0.284432296957,-0.224242424242,-0.23125,,,,,,392.7,194.6,,20882217.0,even,asymm,20881767.0,20882923.0,10405.0,19.0,upper,21.1258078553,21.1258078553,-3.8,26.5,,490.874192145,203.701833503,203.701833503,1.70183350261,1.70183350261,-187.0,-199.9,,202.0,182.0,5.0,True,004B,right__,first,586.9
959.90456843,1.0,control,0.0,32.3333333333,187.0,kitchen,no,incompatible,control, 'correction awayHandle', 'correction awayHandle',1.0,85.0,150.0,163,650,,20888817.0,20889000,,-10.3,21.8684136693,0.662679202098,21.8684136693,0.662679202098,0.116943388606,0.116943388606,,0.116943388606,-0.312121212121,-0.0550802139037,,-0.0550802139037,-20.4,11.7684136693,0.356618596038,11.7684136693,0.356618596038,0.0629326934185,0.0629326934185,,0.0629326934185,-0.618181818182,-0.109090909091,,-0.109090909091,,,,,,,,,,,,,,501.7,491.6,,-10.5,-9.45127860487,-0.292307585718,-0.318181818182,-0.324742268041,28.2,29.2487213951,0.904599630777,0.854545454545,0.872164948454,,,,,,567.5,606.2,,undefined,00404.asc,2.0,overlap,813.0,right,439.846987727,black,32.0,C,control,25.0,50.0,4000.0,50.0,50.0,0.0,fork,0.0,1.0,asymm_kitchen_fork,1.0,1.0,1.0,left,738.0,967.0,20888764.0,20888982,,2.0,53.0,18,,229.0,412,,176.0,394,,3.0,yes,180.0,240.0,-4.7,27.4684136693,0.832376171795,27.4684136693,0.832376171795,0.14688991267,0.14688991267,-0.142424242424,-0.0251336898396,-14.0,18.1684136693,0.550557989977,18.1684136693,0.550557989977,0.0971572923489,0.0971572923489,-0.424242424242,-0.0748663101604,,,,,,,,,,507.3,498.0,,-189.0,-187.951278605,-5.81292614242,-5.72727272727,-5.84536082474,6.2,7.24872139513,0.224187259643,0.187878787879,0.19175257732,,,,,,389.0,584.2,,20888588.0,even,asymm,20888138.0,20889555.0,10406.0,20.0,lower,-32.1684136693,-32.1684136693,-13.9,-16.7,,544.168413669,576.951278605,576.951278605,-1.04872139513,-1.04872139513,202.3,222.5,,578.0,-194.0,-6.0,True,004B,left__,first,567.5
856.067169648,1.0,control,0.0,43.3333333333,176.333333333,kitchen,no,compatible,control, 'correction awayHandle', 'correction awayHandle',1.0,85.0,150.0,107,639,,20896890.0,20897022,,-32.1,-62.990600737,-1.90880608294,-62.990600737,-1.90880608294,-0.357224578849,-0.357224578849,,0.357224578849,-0.972727272727,-0.182041587902,,0.182041587902,30.5,-0.390600736957,-0.0118363859684,-0.390600736957,-0.0118363859684,-0.00221512705268,-0.00221512705268,,0.00221512705268,0.924242424242,0.172967863894,,-0.172967863894,,,,,,,,,,,,,,479.9,542.5,,-22.0,-10.20931181,-0.235599503309,-0.666666666667,-0.507692307692,-6.5,5.29068818995,0.122092804383,-0.19696969697,-0.15,,,,,,560.0,575.5,,undefined,00404.asc,2.0,zero,746.0,left,455.174574793,black,32.0,A,control,25.0,50.0,4000.0,50.0,50.0,0.0,washingbrush,0.0,1.0,asymm_kitchen_washingbrush,1.0,1.0,1.0,left,672.0,863.0,20896839.0,20896999,,2.0,51.0,23,,191.0,323,,140.0,300,,3.0,yes,180.0,240.0,0.7,-30.190600737,-0.914866688999,-30.190600737,-0.914866688999,-0.171213236694,-0.171213236694,0.0212121212121,0.00396975425331,-42.0,-72.890600737,-2.20880608294,-72.890600737,-2.20880608294,-0.413368246145,-0.413368246145,-1.27272727273,-0.238185255198,,,,,,,,,,512.7,470.0,,-208.7,-196.90931181,-4.54406104177,-6.32424242424,-4.81615384615,6.1,17.89068819,0.412862035153,0.184848484848,0.140769230769,,,,,,373.3,588.1,,20896699.0,even,asymm,20896239.0,20897562.0,10407.0,21.0,lower,30.890600737,30.890600737,-42.5,24.9,,481.109399263,570.20931181,570.20931181,-11.79068819,-11.79068819,202.4,202.0,,582.0,-198.0,-6.0,True,004B,right__,first,560.0
802.758991049,1.0,control,0.0,66.6666666667,162.666666667,garage,no,incompatible,control, 'correction awayHandle', 'correction awayHandle',2.0,85.0,150.0,179,443,,20901658.0,20901859,,0.5,-35.9525052012,-1.08946985458,-35.9525052012,-1.08946985458,-0.221019499188,-0.221019499188,,0.221019499188,0.0151515151515,0.0030737704918,,-0.0030737704918,22.6,-13.8525052012,-0.419772884884,-13.8525052012,-0.419772884884,-0.0851588434498,-0.0851588434498,,0.0851588434498,0.684848484848,0.13893442623,,-0.13893442623,,,,,,,,,,,,,,512.5,534.6,,-52.7,-53.116775653,-0.796751634795,-1.59696969697,-0.7905,-10.1,-10.516775653,-0.157751634795,-0.306060606061,-0.1515,,,,,,507.3,549.9,,undefined,00404.asc,2.0,overlap,622.0,left,470.47464447,black,32.0,A,control,25.0,50.0,4000.0,50.0,50.0,0.0,mallet,0.0,2.0,asymm_garage_mallet,1.0,2.0,2.0,right,549.0,808.0,20901611.0,20901839,,2.0,47.0,20,,259.0,460,,212.0,440,,3.0,yes,180.0,240.0,6.1,-30.3525052012,-0.919772884884,-30.3525052012,-0.919772884884,-0.186593269679,-0.186593269679,0.184848484848,0.0375,-3.7,-40.1525052012,-1.21674258185,-40.1525052012,-1.21674258185,-0.246839171319,-0.246839171319,-0.112121212121,-0.0227459016393,,,,,,,,,,518.1,508.3,,-169.4,-169.816775653,-2.5472516348,-5.13333333333,-2.541,-19.5,-19.916775653,-0.298751634795,-0.590909090909,-0.2925,,,,,,390.6,540.5,,20901399.0,even,asymm,20900919.0,20902207.0,10408.0,22.0,lower,36.4525052012,36.4525052012,-5.1,20.4,,475.547494799,560.416775653,560.416775653,0.416775653024,0.416775653024,154.5,165.7,,560.0,-176.0,-6.0,True,004B,right__,first,507.3
694.789873257,1.0,control,0.0,21.3333333333,176.333333333,kitchen,no,incompatible,control, 'correction smaller than 15', 'correction smaller than 15',1.0,85.0,150.0,639,,,20908603.0,,,9.1,7.28475895483,0.220750271358,7.28475895483,0.220750271358,0.0413124326361,0.0413124326361,,0.0413124326361,0.275757575758,0.051606805293,,0.051606805293,,,,,,,,,,,,,,,,,,,,,,,,,,,521.1,,,-44.4,-36.5751037343,-1.71445798754,-1.34545454545,-2.08125,,,,,,,,,,,510.6,,,undefined,00404.asc,1.0,zero,639.0,right,429.022124249,black,32.0,C,control,25.0,50.0,4000.0,50.0,50.0,0.0,knife,0.0,2.0,asymm_kitchen_knife,0.0,2.0,1.0,left,538.0,701.0,20908555.0,,,1.0,48.0,,,163.0,,,115.0,,,3.0,yes,180.0,240.0,13.6,11.7847589548,0.357113907722,11.7847589548,0.357113907722,0.0668322814073,0.0668322814073,0.412121212121,0.0771266540643,,,,,,,,,,,,,,,,,,,525.6,,,-171.5,-163.675103734,-7.67227048754,-5.19696969697,-8.0390625,,,,,,,,,,,383.5,,,20908440.0,even,asymm,20908000.0,20909141.0,10409.0,23.0,lower,1.81524104517,1.81524104517,3.8,,,510.184758955,547.175103734,547.175103734,-7.82489626572,-7.82489626572,163.7,,,555.0,-171.0,-6.0,True,004B,right__,first,510.6
1077.79681196,1.0,control,0.0,29.3333333333,173.333333333,garage,no,compatible,control, 'correction smaller than 15', 'correction smaller than 15',2.0,85.0,150.0,216,771,,20955361.0,20955597,,-9.8,-11.0057513206,-0.333507615777,-11.0057513206,-0.333507615777,-0.0634947191575,-0.0634947191575,,-0.0634947191575,-0.29696969697,-0.0565384615385,,-0.0565384615385,-55.9,-57.1057513206,-1.73047731275,-57.1057513206,-1.73047731275,-0.329456257619,-0.329456257619,,-0.329456257619,-1.69393939394,-0.3225,,-0.3225,,,,,,,,,,,,,,502.2,456.1,,-13.5,-12.2147538005,-0.41641206138,-0.409090909091,-0.460227272727,-41.2,-39.9147538005,-1.3607302432,-1.24848484848,-1.40454545455,,,,,,164.5,136.8,,undefined,00404.asc,2.0,zero,987.0,right,437.553317168,black,32.0,C,control,25.0,50.0,4000.0,50.0,50.0,0.0,chisel2,0.0,2.0,asymm_garage_chisel2,1.0,2.0,2.0,right,908.0,1084.0,20955310.0,20955579,,2.0,51.0,18,,176.0,412,,125.0,394,,3.0,yes,180.0,240.0,1.2,-0.00575132063892,-0.000174282443604,-0.00575132063892,-0.000174282443604,-3.31806959938e-05,-3.31806959938e-05,0.0363636363636,0.00692307692308,-10.5,-11.7057513206,-0.354719736989,-11.7057513206,-0.354719736989,-0.067533180696,-0.067533180696,-0.318181818182,-0.0605769230769,,,,,,,,,,513.2,501.5,,199.9,201.1852462,6.85858793862,6.05757575758,6.81477272727,-38.0,-36.7147538005,-1.25163933411,-1.15151515152,-1.29545454545,,,,,,377.9,140.0,,20955185.0,even,asymm,20954745.0,20956269.0,10416.0,30.0,upper,1.20575132064,1.20575132064,-11.8,-48.0,,510.794248679,176.7147538,176.7147538,-1.28524619951,-1.28524619951,-243.4,-240.9,,178.0,206.0,6.0,True,004B,right__,first,548.5
748.889781995,1.0,control,0.0,42.6666666667,176.0,kitchen,no,incompatible,control, 'correction smaller than 15', 'correction smaller than 15',1.0,85.0,150.0,225,421,,21051011.0,21051257,,-6.3,5.72626300639,0.173523121406,5.72626300639,0.173523121406,0.0325355852636,0.0325355852636,,0.0325355852636,-0.190909090909,-0.0357954545455,,-0.0357954545455,-33.5,-21.4737369936,-0.650719302837,-21.4737369936,-0.650719302837,-0.122009869282,-0.122009869282,,-0.122009869282,-1.01515151515,-0.190340909091,,-0.190340909091,,,,,,,,,,,,,,505.7,478.5,,-19.4,-21.8647558943,-0.512455216273,-0.587878787879,-0.4546875,-10.6,-13.0647558943,-0.306205216273,-0.321212121212,-0.2484375,,,,,,549.6,558.4,,undefined,00404.asc,2.0,zero,646.0,right,497.150765701,black,32.0,C,control,25.0,50.0,4000.0,50.0,50.0,0.0,spoon2,0.0,3.0,asymm_kitchen_spoon2,1.0,3.0,1.0,left,571.0,756.0,21050957.0,21051238,,2.0,54.0,19,,185.0,431,,131.0,412,,3.0,yes,180.0,240.0,8.6,20.6262630064,0.625038272921,20.6262630064,0.625038272921,0.117194676173,0.117194676173,0.260606060606,0.0488636363636,-6.4,5.62626300639,0.170492818376,5.62626300639,0.170492818376,0.0319674034454,0.0319674034454,-0.193939393939,-0.0363636363636,,,,,,,,,,520.6,505.6,,-208.8,-211.264755894,-4.95151771627,-6.32727272727,-4.89375,-2.5,-4.96475589433,-0.116361466273,-0.0757575757576,-0.05859375,,,,,,360.2,566.5,,21050826.0,even,asymm,21050326.0,21051582.0,10428.0,42.0,lower,-12.0262630064,-12.0262630064,-9.6,-27.6,,524.026263006,571.464755894,571.464755894,2.46475589433,2.46475589433,181.5,178.9,,569.0,-185.0,-6.0,True,004B,left__,first,549.6
969.681724943,1.0,control,0.0,64.3333333333,165.666666667,garage,no,compatible,control, 'correction awayHandle', 'correction awayHandle',2.0,85.0,150.0,906,,,21080775.0,,,29.1,78.3380396484,2.37387998935,78.3380396484,2.37387998935,0.472865430473,0.472865430473,,0.472865430473,0.881818181818,0.175653923541,,0.175653923541,,,,,,,,,,,,,,,,,,,,,,,,,,,541.1,,,-22.7,-28.5504250274,-0.443788990063,-0.687878787879,-0.352849740933,,,,,,,,,,,165.3,,,undefined,00404.asc,1.0,zero,906.0,right,408.316825152,black,32.0,C,control,25.0,50.0,4000.0,50.0,50.0,0.0,hammer,0.0,3.0,asymm_garage_hammer,0.0,3.0,2.0,right,809.0,975.0,21080740.0,,,1.0,35.0,,,166.0,,,131.0,,,3.0,yes,180.0,240.0,-0.3,48.9380396484,1.48297089844,48.9380396484,1.48297089844,0.295400641741,0.295400641741,-0.00909090909091,-0.00181086519115,,,,,,,,,,,,,,,,,,,511.7,,,188.0,182.149574973,2.83134054362,5.69696969697,2.92227979275,,,,,,,,,,,376.0,,,21080609.0,even,asymm,21080199.0,21081584.0,10432.0,46.0,upper,-49.2380396484,-49.2380396484,22.7,,,561.238039648,193.850425027,193.850425027,5.8504250274,5.8504250274,-231.4,,,188.0,196.0,5.0,True,004B,left__,first,549.3
690.023685357,1.0,control,0.0,32.0,176.0,garage,no,compatible,control, 'correction awayHandle', 'correction awayHandle',2.0,85.0,150.0,180,389,,21149645.0,21149841,,6.0,27.1258078553,0.821994177432,27.1258078553,0.821994177432,0.154123908269,0.154123908269,,0.154123908269,0.181818181818,0.0340909090909,,0.0340909090909,-33.3,-12.1741921447,-0.368914913477,-12.1741921447,-0.368914913477,-0.0691715462769,-0.0691715462769,,-0.0691715462769,-1.00909090909,-0.189204545455,,-0.189204545455,,,,,,,,,,,,,,518.0,478.7,,-59.3,-61.0018335026,-1.90630729696,-1.79696969697,-1.853125,-45.3,-47.0018335026,-1.46880729696,-1.37272727273,-1.415625,,,,,,103.7,117.7,,undefined,00404.asc,2.0,overlap,569.0,right,386.294772471,black,32.0,C,control,25.0,50.0,4000.0,50.0,50.0,0.0,wrench,0.0,4.0,asymm_garage_wrench,1.0,4.0,2.0,right,489.0,697.0,21149608.0,21149827,,2.0,37.0,14,,208.0,404,,171.0,390,,3.0,yes,180.0,240.0,3.9,25.0258078553,0.758357813796,25.0258078553,0.758357813796,0.142192090087,0.142192090087,0.118181818182,0.0221590909091,-5.0,16.1258078553,0.488660844099,16.1258078553,0.488660844099,0.0916239082685,0.0916239082685,-0.151515151515,-0.0284090909091,,,,,,,,,,515.9,507.0,,219.7,217.998166497,6.81244270304,6.65757575758,6.865625,-51.8,-53.5018335026,-1.67193229696,-1.5696969697,-1.61875,,,,,,382.7,111.2,,21149437.0,even,asymm,21149047.0,21150134.0,10440.0,54.0,upper,-21.1258078553,-21.1258078553,-1.2,-28.2,,533.125807855,164.701833503,164.701833503,1.70183350261,1.70183350261,-275.5,-266.1,,163.0,221.0,6.0,True,004B,left__,first,487.7
934.541112258,1.0,control,0.0,27.0,176.333333333,garage,no,incompatible,control, 'correction towardsHandle', 'correction towardsHandle',2.0,85.0,150.0,216,152,403,21154363.0,21154603,21154777,40.3,94.1138704136,2.85193546708,94.1138704136,2.85193546708,0.533727053385,0.533727053385,,-0.533727053385,1.22121212121,0.22854442344,,-0.22854442344,107.9,161.713870414,4.90042031556,161.713870414,4.90042031556,0.917091892705,0.917091892705,,-0.917091892705,3.2696969697,0.61190926276,,-0.61190926276,137.6,191.413870414,5.80042031556,191.413870414,5.80042031556,1.0855228946,1.0855228946,,-1.0855228946,4.1696969697,0.78034026465,,-0.78034026465,552.3,619.9,649.6,-35.7,-30.2782010861,-1.12141485504,-1.08181818182,-1.32222222222,-12.4,-6.97820108612,-0.258451892078,-0.375757575758,-0.459259259259,-10.9,-5.47820108612,-0.202896336523,-0.330303030303,-0.403703703704,550.3,573.6,575.1,undefined,00404.asc,3.0,zero,771.0,left,315.459847485,black,32.0,A,control,25.0,50.0,4000.0,50.0,50.0,0.0,screwdriver,0.0,4.0,asymm_garage_screwdriver,1.0,4.0,2.0,right,715.0,940.0,21154308.0,21154581,21154757,3.0,55.0,22,20,225.0,465,639,170.0,443,619,3.0,yes,180.0,240.0,6.5,60.3138704136,1.82769304284,60.3138704136,1.82769304284,0.342044633726,0.342044633726,0.19696969697,0.0368620037807,38.2,92.0138704136,2.78829910344,92.0138704136,2.78829910344,0.521817790625,0.521817790625,1.15757575758,0.216635160681,106.0,159.813870414,4.84284455799,159.813870414,4.84284455799,0.906316845446,0.906316845446,3.21212121212,0.601134215501,518.5,550.2,618.0,-203.0,-197.578201086,-7.31771115134,-6.15151515152,-7.51851851852,-17.2,-11.7782010861,-0.436229669856,-0.521212121212,-0.637037037037,-0.2,5.22179891388,0.193399959773,-0.0060606060606,-0.0074074074074,383.0,568.8,585.8,21154138.0,even,asymm,21153817.0,21155078.0,10441.0,55.0,lower,-53.8138704136,-53.8138704136,37.5,104.3,136.0,565.813870414,580.578201086,580.578201086,-5.42179891388,-5.42179891388,184.9,195.0,195.6,586.0,-202.0,-6.0,True,004B,left__,first,550.3
663.933088243,1.0,control,0.0,22.0,144.666666667,kitchen,no,compatible,control, 'correction smaller than 15', 'correction smaller than 15',1.0,85.0,150.0,139,436,,21183896.0,21184057,,-1.9,-2.66410274808,-0.0807303863056,-2.66410274808,-0.0807303863056,-0.018415456784,-0.018415456784,,0.018415456784,-0.0575757575758,-0.013133640553,,0.013133640553,20.9,20.1358972519,0.610178704603,20.1358972519,0.610178704603,0.139188229852,0.139188229852,,-0.139188229852,0.633333333333,0.144470046083,,-0.144470046083,,,,,,,,,,,,,,510.1,532.9,,7.6,13.7935068806,0.62697758548,0.230303030303,0.345454545455,-40.8,-34.6064931194,-1.57302241452,-1.23636363636,-1.85454545455,,,,,,165.6,117.2,,undefined,00404.asc,2.0,overlap,575.0,left,385.424363229,black,32.0,A,control,25.0,50.0,4000.0,50.0,50.0,0.0,peeler,0.0,3.0,asymm_kitchen_peeler,1.0,3.0,1.0,left,493.0,668.0,21183862.0,21184037,,2.0,34.0,20,,175.0,336,,141.0,316,,3.0,yes,180.0,240.0,-2.9,-3.66410274808,-0.111033416609,-3.66410274808,-0.111033416609,-0.0253278991803,-0.0253278991803,-0.0878787878788,-0.0200460829493,-7.4,-8.16410274808,-0.247397052972,-8.16410274808,-0.247397052972,-0.0564338899637,-0.0564338899637,-0.224242424242,-0.0511520737327,,,,,,,,,,509.1,504.6,,225.8,231.993506881,10.5451594037,6.84242424242,10.2636363636,0.2,6.39350688056,0.290613949116,0.00606060606061,0.00909090909091,,,,,,383.8,158.2,,21183721.0,even,asymm,21183331.0,21184389.0,10445.0,59.0,upper,0.764102748085,0.764102748085,-6.8,20.8,,511.235897252,151.806493119,151.806493119,-6.19350688056,-6.19350688056,-221.8,-254.2,,158.0,226.0,6.0,True,004B,right__,first,549.6
648.171550667,1.0,control,0.0,43.3333333333,176.333333333,kitchen,no,incompatible,control, 'correction awayHandle', 'correction awayHandle',1.0,85.0,150.0,156,361,,21195885.0,21196063,,16.0,46.890600737,1.42092729506,46.890600737,1.42092729506,0.265920231022,0.265920231022,,0.265920231022,0.484848484848,0.0907372400756,,0.0907372400756,-32.9,-2.00939926304,-0.0608908867589,-2.00939926304,-0.0608908867589,-0.0113954589587,-0.0113954589587,,-0.0113954589587,-0.99696969697,-0.186578449905,,-0.186578449905,,,,,,,,,,,,,,528.0,479.1,,-45.9,-34.10931181,-0.787137964847,-1.39090909091,-1.05923076923,-13.7,-1.90931181005,-0.0440610417704,-0.415151515152,-0.316153846154,,,,,,509.1,541.3,,undefined,00404.asc,2.0,overlap,517.0,right,423.90485012,black,32.0,C,control,25.0,50.0,4000.0,50.0,50.0,0.0,washingbrush,0.0,3.0,asymm_kitchen_washingbrush,1.0,3.0,1.0,left,439.0,652.0,21195838.0,21196043,,2.0,47.0,20,,213.0,391,,166.0,371,,3.0,yes,180.0,240.0,-8.2,22.690600737,0.687593961726,22.690600737,0.687593961726,0.128680155408,0.128680155408,-0.248484848485,-0.0465028355388,16.6,47.490600737,1.43910911324,47.490600737,1.43910911324,0.269322877525,0.269322877525,0.50303030303,0.0941398865785,,,,,,,,,,503.8,528.6,,-159.4,-147.60931181,-3.40636873408,-4.8303030303,-3.67846153846,-10.1,1.69068818995,0.0390158813065,-0.306060606061,-0.233076923077,,,,,,395.6,544.9,,21195672.0,even,asymm,21195242.0,21196324.0,10446.0,60.0,lower,-30.890600737,-30.890600737,14.0,-19.2,,542.890600737,543.20931181,543.20931181,-11.79068819,-11.79068819,158.4,158.8,,555.0,-171.0,-6.0,True,004B,left__,first,509.1
560.148687872,1.0,control,0.0,27.0,184.333333333,kitchen,no,compatible,control, 'correction smaller than 15', 'correction smaller than 15',1.0,85.0,150.0,161,336,,21203473.0,21203659,,-10.9,-24.3578679943,-0.738117211948,-24.3578679943,-0.738117211948,-0.1321403327,-0.1321403327,,0.1321403327,-0.330303030303,-0.0591320072333,,0.0591320072333,42.4,28.9421320057,0.877034303204,28.9421320057,0.877034303204,0.157009757716,0.157009757716,,-0.157009757716,1.28484848485,0.230018083183,,-0.230018083183,,,,,,,,,,,,,,501.1,554.4,,12.1,19.3922928151,0.718233067224,0.366666666667,0.448148148148,-6.1,1.19229281505,0.0441589931502,-0.184848484848,-0.225925925926,,,,,,186.1,167.9,,undefined,00404.asc,2.0,zero,497.0,left,473.611638072,black,32.0,A,control,25.0,50.0,4000.0,50.0,50.0,0.0,spoon,0.0,4.0,asymm_kitchen_spoon,1.0,4.0,1.0,left,424.0,564.0,21203440.0,21203636,,2.0,33.0,23,,140.0,326,,107.0,303,,3.0,yes,180.0,240.0,-1.1,-14.5578679943,-0.441147514978,-14.5578679943,-0.441147514978,-0.0789757757375,-0.0789757757375,-0.0333333333333,-0.00596745027125,-17.0,-30.4578679943,-0.922965696796,-30.4578679943,-0.922965696796,-0.165232556931,-0.165232556931,-0.515151515152,-0.0922242314647,,,,,,,,,,510.9,495.0,,249.2,256.492292815,9.49971454871,7.55151515152,9.22962962963,18.1,25.3922928151,0.940455289446,0.548484848485,0.67037037037,,,,,,423.2,192.1,,21203333.0,even,asymm,21202853.0,21203897.0,10447.0,61.0,upper,13.4578679943,13.4578679943,-16.5,29.9,,498.542132006,166.707707185,166.707707185,-7.29229281505,-7.29229281505,-190.3,-209.5,,174.0,210.0,6.0,True,004B,right__,first,570.1
547.901933753,1.0,control,0.0,66.6666666667,162.666666667,garage,no,compatible,control, 'correction awayHandle', 'correction awayHandle',2.0,85.0,150.0,100,220,,21213993.0,21214136,,12.8,49.2525052012,1.49250015761,49.2525052012,1.49250015761,0.302781794269,0.302781794269,,0.302781794269,0.387878787879,0.0786885245902,,0.0786885245902,7.7,44.1525052012,1.33795470307,44.1525052012,1.33795470307,0.271429335253,0.271429335253,,0.271429335253,0.233333333333,0.0473360655738,,0.0473360655738,,,,,,,,,,,,,,524.8,519.7,,-117.5,-117.916775653,-1.7687516348,-3.56060606061,-1.7625,-26.2,-26.616775653,-0.399251634795,-0.793939393939,-0.393,,,,,,502.5,593.8,,undefined,00404.asc,2.0,overlap,320.0,right,444.013720809,black,32.0,C,control,25.0,50.0,4000.0,50.0,50.0,0.0,mallet,0.0,4.0,asymm_garage_mallet,1.0,4.0,2.0,right,263.0,552.0,21213947.0,21214095,,2.0,46.0,41,,289.0,432,,243.0,391,,3.0,yes,180.0,240.0,1.3,37.7525052012,1.14401530913,37.7525052012,1.14401530913,0.232085072958,0.232085072958,0.0393939393939,0.00799180327869,9.7,46.1525052012,1.39856076367,46.1525052012,1.39856076367,0.28372441722,0.28372441722,0.293939393939,0.059631147541,,,,,,,,,,513.3,521.7,,-229.6,-230.016775653,-3.4502516348,-6.95757575758,-3.444,-84.6,-85.016775653,-1.2752516348,-2.56363636364,-1.269,,,,,,390.4,535.4,,21213704.0,even,asymm,21213254.0,21214256.0,10449.0,63.0,lower,-36.4525052012,-36.4525052012,9.0,5.2,,548.452505201,620.416775653,620.416775653,0.416775653024,0.416775653024,148.6,237.0,,620.0,-236.0,-7.0,True,004B,left__,first,502.5
586.367886813,1.0,control,0.0,32.3333333333,176.333333333,garage,no,incompatible,control, 'correction awayHandle', 'correction awayHandle',2.0,85.0,150.0,221,308,,21264186.0,21264424,,-4.5,-37.7045987775,-1.14256359932,-37.7045987775,-1.14256359932,-0.213825701952,-0.213825701952,,0.213825701952,-0.136363636364,-0.0255198487713,,0.0255198487713,13.7,-19.5045987775,-0.591048447802,-19.5045987775,-0.591048447802,-0.110612091366,-0.110612091366,,0.110612091366,0.415151515152,0.0776937618147,,-0.0776937618147,,,,,,,,,,,,,,507.5,525.7,,-19.8,-19.9729809649,-0.61772106077,-0.6,-0.612371134021,-32.6,-32.7729809649,-1.01359734943,-0.987878787879,-1.00824742268,,,,,,178.2,165.4,,undefined,00404.asc,2.0,overlap,529.0,left,424.778903167,black,32.0,A,control,25.0,50.0,4000.0,50.0,50.0,0.0,paintbrush,0.0,5.0,asymm_garage_paintbrush,1.0,5.0,2.0,right,446.0,592.0,21264152.0,21264409,,2.0,34.0,15,,146.0,384,,112.0,369,,3.0,yes,180.0,240.0,4.8,-28.4045987775,-0.860745417499,-28.4045987775,-0.860745417499,-0.161084681158,-0.161084681158,0.145454545455,0.0272211720227,-13.5,-46.7045987775,-1.41529087204,-46.7045987775,-1.41529087204,-0.264865399494,-0.264865399494,-0.409090909091,-0.0765595463138,,,,,,,,,,516.8,498.5,,190.3,190.127019035,5.88021708356,5.76666666667,5.88556701031,-16.5,-16.6729809649,-0.5156592051,-0.5,-0.510309278351,,,,,,388.3,181.5,,21264040.0,even,asymm,21263610.0,21264632.0,10455.0,69.0,upper,33.2045987775,33.2045987775,-13.1,7.7,,478.795401223,198.172980965,198.172980965,0.172980964907,0.172980964907,-201.3,-213.4,,198.0,186.0,5.0,True,004B,right__,first,562.2
590.734186877,1.0,control,0.0,32.3333333333,187.0,kitchen,no,compatible,control, 'correction awayHandle', 'correction awayHandle',1.0,85.0,150.0,159,358,,22159651.0,22159834,,-20.5,-52.6684136693,-1.59601253543,-52.6684136693,-1.59601253543,-0.281649270959,-0.281649270959,,0.281649270959,-0.621212121212,-0.109625668449,,0.109625668449,10.8,-21.3684136693,-0.647527686947,-21.3684136693,-0.647527686947,-0.114269591814,-0.114269591814,,0.114269591814,0.327272727273,0.0577540106952,,-0.0577540106952,,,,,,,,,,,,,,491.5,522.8,,-44.8,-43.7512786049,-1.35313232799,-1.35757575758,-1.38556701031,-40.4,-39.3512786049,-1.21704985376,-1.22424242424,-1.24948453608,,,,,,160.2,164.6,,undefined,00404.asc,2.0,zero,517.0,left,350.901409251,black,32.0,A,control,25.0,50.0,4000.0,50.0,50.0,0.0,fork,0.0,5.0,asymm_kitchen_fork,1.0,5.0,1.0,left,445.0,597.0,22159617.0,22159812,,2.0,34.0,22,,152.0,335,,118.0,313,,3.0,yes,180.0,240.0,1.3,-30.8684136693,-0.935406474826,-30.8684136693,-0.935406474826,-0.165071730852,-0.165071730852,0.0393939393939,0.00695187165775,-24.9,-57.0684136693,-1.72934586877,-57.0684136693,-1.72934586877,-0.305178682723,-0.305178682723,-0.754545454545,-0.133155080214,,,,,,,,,,513.3,487.1,,175.4,176.448721395,5.45717695036,5.31515151515,5.42474226804,-40.1,-39.0512786049,-1.20777150324,-1.21515151515,-1.24020618557,,,,,,380.4,164.9,,22159499.0,even,asymm,22159139.0,22160096.0,10464.0,78.0,upper,32.1684136693,32.1684136693,-26.0,6.4,,479.831586331,203.951278605,203.951278605,-1.04872139513,-1.04872139513,-218.1,-217.7,,205.0,179.0,5.0,True,004B,right__,first,544.2
661.185411292,1.0,control,0.0,22.0,144.666666667,kitchen,no,incompatible,control, 'correction smaller than 15', 'correction smaller than 15',1.0,85.0,150.0,167,429,,22212242.0,22212429,,-4.8,-4.03589725192,-0.122299916725,-4.03589725192,-0.122299916725,-0.0278979072713,-0.0278979072713,,-0.0278979072713,-0.145454545455,-0.0331797235023,,-0.0331797235023,-41.7,-40.9358972519,-1.24048173491,-40.9358972519,-1.24048173491,-0.282967031695,-0.282967031695,,-0.282967031695,-1.26363636364,-0.288248847926,,-0.288248847926,,,,,,,,,,,,,,507.2,470.3,,-3.0,3.19350688056,0.145159403662,-0.0909090909091,-0.136363636364,-26.7,-20.5064931194,-0.932113323611,-0.809090909091,-1.21363636364,,,,,,174.0,150.3,,undefined,00404.asc,2.0,zero,596.0,right,437.513001222,black,32.0,C,control,25.0,50.0,4000.0,50.0,50.0,0.0,peeler,0.0,5.0,asymm_kitchen_peeler,1.0,5.0,1.0,left,520.0,667.0,22212214.0,22212411,,2.0,28.0,18,,147.0,334,,119.0,316,,3.0,yes,180.0,240.0,-2.9,-2.13589725192,-0.064724159149,-2.13589725192,-0.064724159149,-0.0147642667183,-0.0147642667183,-0.0878787878788,-0.0200460829493,-6.6,-5.83589725192,-0.17684537127,-5.83589725192,-0.17684537127,-0.0403403035847,-0.0403403035847,-0.2,-0.0456221198157,,,,,,,,,,509.1,505.4,,151.6,157.793506881,7.17243213093,4.59393939394,6.89090909091,-2.1,4.09350688056,0.186068494571,-0.0636363636364,-0.0954545454545,,,,,,328.6,174.9,,22212095.0,even,asymm,22211655.0,22212762.0,10475.0,89.0,upper,-0.764102748085,-0.764102748085,-7.2,-32.6,,512.764102748,170.806493119,170.806493119,-6.19350688056,-6.19350688056,-210.1,-228.2,,177.0,207.0,6.0,True,004B,left__,first,558.0
489.373890309,1.0,control,0.0,27.0,184.333333333,kitchen,no,incompatible,control, 'correction smaller than 15', 'correction smaller than 15',1.0,85.0,150.0,143,257,,22222264.0,22222431,,-4.5,8.95786799428,0.271450545281,8.95786799428,0.271450545281,0.0485960289021,0.0485960289021,,0.0485960289021,-0.136363636364,-0.0244122965642,,-0.0244122965642,-61.4,-47.9421320057,-1.45279187896,-47.9421320057,-1.45279187896,-0.260083898765,-0.260083898765,,-0.260083898765,-1.86060606061,-0.333092224231,,-0.333092224231,,,,,,,,,,,,,,507.5,450.6,,-37.2,-29.9077071849,-1.1076928587,-1.12727272727,-1.37777777778,-45.4,-38.1077071849,-1.41139656241,-1.37575757576,-1.68148148148,,,,,,152.8,144.6,,undefined,00404.asc,2.0,overlap,400.0,right,429.304625184,black,32.0,C,control,25.0,50.0,4000.0,50.0,50.0,0.0,spoon,0.0,6.0,asymm_kitchen_spoon,1.0,6.0,1.0,left,329.0,497.0,22222231.0,22222409,,2.0,33.0,22,,168.0,335,,135.0,313,,3.0,yes,180.0,240.0,-0.1,13.3578679943,0.404783878615,13.3578679943,0.404783878615,0.0724658299871,0.0724658299871,-0.0030303030303,-0.000542495479204,-5.4,8.05786799428,0.244177818009,8.05786799428,0.244177818009,0.0437135695892,0.0437135695892,-0.163636363636,-0.029294755877,,,,,,,,,,511.9,506.6,,182.3,189.592292815,7.02193677093,5.52424242424,6.75185185185,-42.0,-34.7077071849,-1.28547063648,-1.27272727273,-1.55555555556,,,,,,372.3,148.0,,22222096.0,even,asymm,22221656.0,22222593.0,10477.0,91.0,upper,-13.4578679943,-13.4578679943,-6.0,-49.3,,525.457867994,182.707707185,182.707707185,-7.29229281505,-7.29229281505,-233.8,-238.1,,190.0,194.0,5.0,True,004B,left__,first,536.8
720.193873362,1.0,control,0.0,24.0,176.0,garage,no,incompatible,control, 'correction towardsHandle', 'correction towardsHandle',2.0,85.0,150.0,150,262,203,22237135.0,22237298,22237577,0.5,25.0764355818,0.759891987328,25.0764355818,0.759891987328,0.142479747624,0.142479747624,,-0.142479747624,0.0151515151515,0.00284090909091,,-0.00284090909091,8.5,33.0764355818,1.00231622975,33.0764355818,1.00231622975,0.187934293079,0.187934293079,,-0.187934293079,0.257575757576,0.0482954545455,,-0.0482954545455,41.9,66.4764355818,2.01443744187,66.4764355818,2.01443744187,0.377707020351,0.377707020351,,-0.377707020351,1.2696969697,0.238068181818,,-0.238068181818,512.5,520.5,553.9,-42.0,-38.9027401217,-1.62094750507,-1.27272727273,-1.75,15.3,18.3972598783,0.766552494931,0.463636363636,0.6375,12.2,15.2972598783,0.637385828264,0.369696969697,0.508333333333,572.0,629.3,626.2,undefined,00404.asc,3.0,zero,615.0,left,419.702678371,black,32.0,A,control,25.0,50.0,4000.0,50.0,50.0,0.0,chisel,0.0,6.0,asymm_garage_chisel,1.0,6.0,2.0,right,547.0,724.0,22237085.0,22237287,22237562,3.0,50.0,11,15,177.0,340,619,127.0,329,604,3.0,yes,180.0,240.0,1.5,26.0764355818,0.790195017631,26.0764355818,0.790195017631,0.148161565806,0.148161565806,0.0454545454545,0.00852272727273,-6.0,18.5764355818,0.562922290358,18.5764355818,0.562922290358,0.105547929442,0.105547929442,-0.181818181818,-0.0340909090909,10.2,34.7764355818,1.05383138127,34.7764355818,1.05383138127,0.197593383988,0.197593383988,0.309090909091,0.0579545454545,513.5,506.0,522.2,-239.5,-236.402740122,-9.85011417174,-7.25757575758,-9.97916666667,-5.2,-2.10274012166,-0.0876141717358,-0.157575757576,-0.216666666667,13.1,16.1972598783,0.674885828264,0.39696969697,0.545833333333,374.5,608.8,627.1,22236958.0,even,asymm,22236528.0,22237682.0,10480.0,94.0,lower,-24.5764355818,-24.5764355818,-6.6,8.4,36.8,536.576435582,610.902740122,610.902740122,-3.09725987834,-3.09725987834,221.4,241.7,245.8,614.0,-230.0,-7.0,True,004B,left__,first,572.0
644.878452559,1.0,control,0.0,21.3333333333,176.333333333,kitchen,no,compatible,control, 'correction smaller than 15', 'correction smaller than 15',1.0,85.0,150.0,200,185,173,22241689.0,22241907,22242118,-5.7,-3.88475895483,-0.117719968328,-3.88475895483,-0.117719968328,-0.02203076912,-0.02203076912,,0.02203076912,-0.172727272727,-0.0323251417769,,0.0323251417769,-44.6,-42.7847589548,-1.29650784712,-42.7847589548,-1.29650784712,-0.242635684054,-0.242635684054,,0.242635684054,-1.35151515152,-0.252930056711,,0.252930056711,34.9,36.7152410452,1.11258306197,36.7152410452,1.11258306197,0.208214977572,0.208214977572,,-0.208214977572,1.05757575758,0.197920604915,,-0.197920604915,506.3,467.4,546.9,-23.7,-15.8751037343,-0.744145487544,-0.718181818182,-1.1109375,-16.4,-8.57510373428,-0.401957987544,-0.49696969697,-0.76875,-15.1,-7.27510373428,-0.341020487544,-0.457575757576,-0.7078125,577.3,584.6,585.9,undefined,00404.asc,3.0,zero,558.0,left,469.09679012,black,32.0,A,control,25.0,50.0,4000.0,50.0,50.0,0.0,knife,0.0,6.0,asymm_kitchen_knife,1.0,6.0,1.0,left,498.0,649.0,22241634.0,22241891,22242094,3.0,55.0,16,24,151.0,369,580,96.0,353,556,3.0,yes,180.0,240.0,-1.2,0.615241045173,0.0186436680355,0.615241045173,0.0186436680355,0.00348907965126,0.00348907965126,-0.0363636363636,-0.00680529300567,-11.5,-9.68475895483,-0.293477544086,-9.68475895483,-0.293477544086,-0.0549230186474,-0.0549230186474,-0.348484848485,-0.0652173913043,-34.4,-32.5847589548,-0.987416938025,-32.5847589548,-0.987416938025,-0.184790693506,-0.184790693506,-1.04242424242,-0.195085066163,510.8,500.5,477.6,-210.3,-202.475103734,-9.49102048754,-6.37272727273,-9.8578125,-5.4,2.42489626572,0.113667012456,-0.163636363636,-0.253125,-7.4,0.42489626572,0.0199170124556,-0.224242424242,-0.346875,390.7,595.6,593.6,22241538.0,even,asymm,22241058.0,22242187.0,10481.0,95.0,lower,-1.81524104517,-1.81524104517,-11.2,-34.4,25.5,513.815241045,593.175103734,593.175103734,-7.82489626572,-7.82489626572,209.8,206.1,204.3,601.0,-217.0,-7.0,True,004B,left__,first,577.3
737.726825367,1.0,control,1.0,32.3333333333,187.0,kitchen,no,incompatible,control, 'correction awayHandle', 'correction awayHandle',1.0,85.0,150.0,664,,,22333106.0,,,-15.1,17.0684136693,0.517224656644,17.0684136693,0.517224656644,0.0912749394078,0.0912749394078,,0.0912749394078,-0.457575757576,-0.0807486631016,,-0.0807486631016,,,,,,,,,,,,,,,,,,,,,,,,,,,496.9,,,-50.5,-49.4512786049,-1.52942098778,-1.5303030303,-1.5618556701,,,,,,,,,,,517.5,,,undefined,00404.asc,1.0,overlap,664.0,right,489.995458702,black,32.0,C,control,25.0,50.0,4000.0,50.0,50.0,0.0,fork,0.0,6.0,asymm_kitchen_fork,0.0,1.0,1.0,left,564.0,742.0,22333060.0,,,1.0,46.0,,,178.0,,,132.0,,,3.0,yes,180.0,240.0,-7.0,25.1684136693,0.762679202098,25.1684136693,0.762679202098,0.134590447429,0.134590447429,-0.212121212121,-0.0374331550802,,,,,,,,,,,,,,,,,,,505.0,,,-187.7,-186.651278605,-5.77271995685,-5.68787878788,-5.80515463918,,,,,,,,,,,380.3,,,22332928.0,even,asymm,22332428.0,22333670.0,10491.0,105.0,lower,-32.1684136693,-32.1684136693,-16.2,,,544.168413669,566.951278605,566.951278605,-1.04872139513,-1.04872139513,166.5,,,568.0,-184.0,-6.0,True,004B,left__,first,517.5
731.527777476,1.0,control,1.0,22.0,144.666666667,kitchen,no,compatible,control, 'correction smaller than 15', 'correction smaller than 15',1.0,85.0,150.0,190,466,,22338347.0,22338555,,-20.6,-21.3641027481,-0.647397052972,-21.3641027481,-0.647397052972,-0.147678129595,-0.147678129595,,0.147678129595,-0.624242424242,-0.142396313364,,0.142396313364,15.4,14.6358972519,0.443512037937,14.6358972519,0.443512037937,0.101169796672,0.101169796672,,-0.101169796672,0.466666666667,0.106451612903,,-0.106451612903,,,,,,,,,,,,,,491.4,527.4,,-16.7,-10.5064931194,-0.477567869065,-0.506060606061,-0.759090909091,-19.0,-12.8064931194,-0.582113323611,-0.575757575758,-0.863636363636,,,,,,139.3,137.0,,undefined,00404.asc,2.0,overlap,656.0,left,449.149750129,black,32.0,D,control,25.0,50.0,4000.0,50.0,50.0,0.0,peeler,0.0,6.0,asymm_kitchen_peeler,1.0,1.0,1.0,left,579.0,737.0,22338307.0,22338539,,2.0,40.0,16,,158.0,366,,118.0,350,,3.0,yes,180.0,240.0,-0.4,-1.16410274808,-0.035275840851,-1.16410274808,-0.035275840851,-0.00804679318952,-0.00804679318952,-0.0121212121212,-0.00276497695853,-20.6,-21.3641027481,-0.647397052972,-21.3641027481,-0.647397052972,-0.147678129595,-0.147678129595,-0.624242424242,-0.142396313364,,,,,,,,,,511.6,491.4,,238.4,244.593506881,11.1178866764,7.22424242424,10.8363636364,-16.2,-10.0064931194,-0.454840596338,-0.490909090909,-0.736363636364,,,,,,394.4,139.8,,22338189.0,even,asymm,22337729.0,22338926.0,10492.0,106.0,upper,0.764102748085,0.764102748085,-20.0,6.4,,511.235897252,149.806493119,149.806493119,-6.19350688056,-6.19350688056,-244.2,-248.5,,156.0,228.0,6.0,True,004B,right__,first,523.3
880.76851825,1.0,control,1.0,32.3333333333,176.333333333,garage,no,compatible,control, 'correction awayHandle', 'correction awayHandle',2.0,85.0,150.0,193,611,,22353754.0,22353961,,6.1,39.3045987775,1.1910484478,39.3045987775,1.1910484478,0.222899425959,0.222899425959,,0.222899425959,0.184848484848,0.0345935727788,,0.0345935727788,-10.9,22.3045987775,0.67589693265,22.3045987775,0.67589693265,0.126491108379,0.126491108379,,0.126491108379,-0.330303030303,-0.0618147448015,,-0.0618147448015,,,,,,,,,,,,,,518.1,501.1,,-21.5,-21.6729809649,-0.670298380358,-0.651515151515,-0.664948453608,-40.7,-40.8729809649,-1.26411281335,-1.23333333333,-1.2587628866,,,,,,172.5,153.3,,undefined,00404.asc,2.0,zero,804.0,right,503.520506505,black,32.0,C,control,25.0,50.0,4000.0,50.0,50.0,0.0,paintbrush,0.0,7.0,asymm_garage_paintbrush,1.0,1.0,2.0,right,724.0,887.0,22353720.0,22353949,,2.0,34.0,12,,163.0,370,,129.0,358,,3.0,yes,180.0,240.0,8.9,42.1045987775,1.27589693265,42.1045987775,1.27589693265,0.238778442972,0.238778442972,0.269696969697,0.0504725897921,1.6,34.8045987775,1.05468481144,34.8045987775,1.05468481144,0.197379577188,0.197379577188,0.0484848484848,0.00907372400756,,,,,,,,,,520.9,513.6,,192.1,191.927019035,5.93588718665,5.82121212121,5.9412371134,-15.5,-15.6729809649,-0.484731370049,-0.469696969697,-0.479381443299,,,,,,386.1,178.5,,22353591.0,even,asymm,22353081.0,22354478.0,10494.0,108.0,upper,-33.2045987775,-33.2045987775,1.3,-6.5,,545.204598777,194.172980965,194.172980965,0.172980964907,0.172980964907,-204.1,-226.9,,194.0,190.0,5.0,True,004B,left__,first,556.5
576.685776747,1.0,control,1.0,24.0,176.0,garage,no,incompatible,control, 'correction towardsHandle', 'correction towardsHandle',2.0,85.0,150.0,274,208,,22371882.0,22372177,,12.6,37.1764355818,1.12655865399,37.1764355818,1.12655865399,0.211229747624,0.211229747624,,-0.211229747624,0.381818181818,0.0715909090909,,-0.0715909090909,65.9,90.4764355818,2.74171016915,90.4764355818,2.74171016915,0.514070656715,0.514070656715,,-0.514070656715,1.99696969697,0.374431818182,,-0.374431818182,,,,,,,,,,,,,,524.6,577.9,,-22.1,-19.0027401217,-0.791780838402,-0.669696969697,-0.920833333333,-29.4,-26.3027401217,-1.09594750507,-0.890909090909,-1.225,,,,,,190.9,183.6,,undefined,00404.asc,2.0,overlap,482.0,left,329.980718136,black,32.0,D,control,25.0,50.0,4000.0,50.0,50.0,0.0,chisel,0.0,7.0,asymm_garage_chisel,1.0,1.0,2.0,right,405.0,584.0,22371849.0,22372158,,2.0,33.0,19,,179.0,474,,146.0,455,,3.0,yes,180.0,240.0,5.0,29.5764355818,0.896255623692,29.5764355818,0.896255623692,0.168047929442,0.168047929442,0.151515151515,0.0284090909091,13.8,38.3764355818,1.16292229036,38.3764355818,1.16292229036,0.218047929442,0.218047929442,0.418181818182,0.0784090909091,,,,,,,,,,517.0,525.8,,180.8,183.897259878,7.66238582826,5.47878787879,7.53333333333,-19.0,-15.9027401217,-0.662614171736,-0.575757575758,-0.791666666667,,,,,,393.8,194.0,,22371703.0,even,asymm,22371362.0,22372287.0,10498.0,112.0,upper,-24.5764355818,-24.5764355818,11.2,57.1,,536.576435582,209.902740122,209.902740122,-3.09725987834,-3.09725987834,-186.9,-195.4,,213.0,171.0,5.0,True,004B,left__,first,574.9
540.635177483,1.0,control,1.0,27.0,184.333333333,kitchen,no,incompatible,control, 'correction smaller than 15', 'correction smaller than 15',1.0,85.0,150.0,175,264,,22375563.0,22375761,,-17.3,-3.84213200572,-0.116428242598,-3.84213200572,-0.116428242598,-0.0208433924361,-0.0208433924361,,-0.0208433924361,-0.524242424242,-0.0938517179024,,-0.0938517179024,-64.7,-51.2421320057,-1.55279187896,-51.2421320057,-1.55279187896,-0.277986249579,-0.277986249579,,-0.277986249579,-1.96060606061,-0.350994575045,,-0.350994575045,,,,,,,,,,,,,,494.7,447.3,,-27.5,-20.2077071849,-0.748433599442,-0.833333333333,-1.01851851852,-32.3,-25.0077071849,-0.92621137722,-0.978787878788,-1.1962962963,,,,,,149.5,144.7,,undefined,00404.asc,2.0,zero,439.0,right,382.705582795,black,32.0,C,control,25.0,50.0,4000.0,50.0,50.0,0.0,spoon,0.0,8.0,asymm_kitchen_spoon,1.0,2.0,1.0,left,366.0,546.0,22375519.0,22375740,,2.0,44.0,21,,180.0,378,,136.0,357,,3.0,yes,180.0,240.0,0.9,14.3578679943,0.435086908918,14.3578679943,0.435086908918,0.0778907847791,0.0778907847791,0.0272727272727,0.00488245931284,-11.8,1.65786799428,0.0502384240691,1.65786799428,0.0502384240691,0.00899385892015,0.00899385892015,-0.357575757576,-0.0640144665461,,,,,,,,,,512.9,500.2,,194.4,201.692292815,7.47008491908,5.89090909091,7.2,-46.7,-39.4077071849,-1.45954471055,-1.41515151515,-1.72962962963,,,,,,371.4,130.3,,22375383.0,even,asymm,22374993.0,22375929.0,10499.0,113.0,upper,-13.4578679943,-13.4578679943,-14.8,-53.7,,525.457867994,169.707707185,169.707707185,-7.29229281505,-7.29229281505,-252.5,-240.9,,177.0,207.0,6.0,True,004B,left__,first,533.5
738.715273587,1.0,control,1.0,32.3333333333,176.333333333,garage,no,incompatible,control, 'correction awayHandle', 'correction awayHandle',2.0,85.0,150.0,215,385,,22434361.0,22434596,,-23.8,-57.0045987775,-1.72741208417,-57.0045987775,-1.72741208417,-0.323277497793,-0.323277497793,,0.323277497793,-0.721212121212,-0.134971644612,,0.134971644612,4.3,-28.9045987775,-0.87589693265,-28.9045987775,-0.87589693265,-0.16392021991,-0.16392021991,,0.16392021991,0.130303030303,0.0243856332703,,-0.0243856332703,,,,,,,,,,,,,,488.2,516.3,,-20.3,-20.4729809649,-0.633184978296,-0.615151515152,-0.627835051546,-10.3,-10.4729809649,-0.323906627781,-0.312121212121,-0.318556701031,,,,,,541.7,551.7,,undefined,00404.asc,2.0,overlap,600.0,left,404.436631686,black,32.0,D,control,25.0,50.0,4000.0,50.0,50.0,0.0,paintbrush,0.0,8.0,asymm_garage_paintbrush,1.0,2.0,2.0,right,525.0,746.0,22434311.0,22434578,,2.0,50.0,18,,221.0,456,,171.0,438,,3.0,yes,180.0,240.0,2.6,-30.6045987775,-0.927412084166,-30.6045987775,-0.927412084166,-0.173561051668,-0.173561051668,0.0787878787879,0.0147448015123,-35.5,-68.7045987775,-2.08195753871,-68.7045987775,-2.08195753871,-0.389629104598,-0.389629104598,-1.07575757576,-0.201323251418,,,,,,,,,,514.6,476.5,,-172.9,-173.072980965,-5.35277260716,-5.23939393939,-5.34742268041,9.5,9.32701903509,0.28846450624,0.287878787879,0.29381443299,,,,,,389.1,571.5,,22434140.0,even,asymm,22433729.0,22434886.0,10510.0,124.0,lower,33.2045987775,33.2045987775,-34.9,-1.5,,478.795401223,562.172980965,562.172980965,0.172980964907,0.172980964907,185.0,173.2,,562.0,-178.0,-6.0,True,004B,right__,first,541.7
586.884440326,1.0,control,1.0,42.6666666667,176.0,kitchen,no,incompatible,control, 'correction smaller than 15', 'correction smaller than 15',1.0,85.0,150.0,312,185,,22441323.0,22441657,,-9.7,2.32626300639,0.0704928183756,2.32626300639,0.0704928183756,0.0132174034454,0.0132174034454,,0.0132174034454,-0.293939393939,-0.0551136363636,,-0.0551136363636,-64.8,-52.7737369936,-1.59920415132,-52.7737369936,-1.59920415132,-0.299850778373,-0.299850778373,,-0.299850778373,-1.96363636364,-0.368181818182,,-0.368181818182,,,,,,,,,,,,,,502.3,447.2,,-27.5,-29.9647558943,-0.702298966273,-0.833333333333,-0.64453125,-32.5,-34.9647558943,-0.819486466273,-0.984848484848,-0.76171875,,,,,,179.5,174.5,,undefined,00404.asc,2.0,overlap,497.0,right,435.791611433,black,32.0,C,control,25.0,50.0,4000.0,50.0,50.0,0.0,spoon2,0.0,8.0,asymm_kitchen_spoon2,1.0,3.0,1.0,left,420.0,593.0,22441289.0,22441637,,2.0,34.0,20,,173.0,507,,139.0,487,,3.0,yes,180.0,240.0,-12.9,-0.873736993605,-0.0264768785941,-0.873736993605,-0.0264768785941,-0.00496441473639,-0.00496441473639,-0.390909090909,-0.0732954545455,-15.8,-3.77373699361,-0.114355666473,-3.77373699361,-0.114355666473,-0.0214416874637,-0.0214416874637,-0.478787878788,-0.0897727272727,,,,,,,,,,499.1,496.2,,161.5,159.035244106,3.72738853373,4.89393939394,3.78515625,-26.3,-28.7647558943,-0.674173966273,-0.79696969697,-0.61640625,,,,,,368.5,180.7,,22441150.0,even,asymm,22440710.0,22441743.0,10511.0,125.0,upper,-12.0262630064,-12.0262630064,-15.0,-54.9,,524.026263006,209.464755894,209.464755894,2.46475589433,2.46475589433,-202.9,-207.3,,207.0,177.0,5.0,True,004B,left__,first,563.5
542.030720826,1.0,control,1.0,32.3333333333,187.0,kitchen,no,compatible,control, 'correction awayHandle', 'correction awayHandle',1.0,85.0,150.0,507,,,22457627.0,,,0.7,-31.4684136693,-0.953588293008,-31.4684136693,-0.953588293008,-0.168280287001,-0.168280287001,,0.168280287001,0.0212121212121,0.00374331550802,,-0.00374331550802,,,,,,,,,,,,,,,,,,,,,,,,,,,512.7,,,-30.0,-28.9512786049,-0.895400369223,-0.909090909091,-0.927835051546,,,,,,,,,,,153.0,,,undefined,00404.asc,1.0,overlap,507.0,left,409.800115971,black,32.0,D,control,25.0,50.0,4000.0,50.0,50.0,0.0,fork,0.0,7.0,asymm_kitchen_fork,0.0,2.0,1.0,left,405.0,550.0,22457593.0,,,1.0,34.0,,,145.0,,,111.0,,,3.0,yes,180.0,240.0,6.2,-25.9684136693,-0.786921626341,-25.9684136693,-0.786921626341,-0.138868522295,-0.138868522295,0.187878787879,0.0331550802139,,,,,,,,,,,,,,,,,,,518.2,,,195.2,196.248721395,6.06954808439,5.91515151515,6.03711340206,,,,,,,,,,,378.2,,,22457482.0,even,asymm,22457062.0,22458032.0,10513.0,127.0,upper,32.1684136693,32.1684136693,1.3,,,479.831586331,181.951278605,181.951278605,-1.04872139513,-1.04872139513,-227.2,,,183.0,201.0,5.0,True,004B,right__,first,537.0
471.668630339,1.0,control,1.0,43.3333333333,176.333333333,kitchen,no,incompatible,control, 'correction awayHandle', 'correction awayHandle',1.0,85.0,150.0,427,,,22471998.0,,,-0.1,30.790600737,0.933048507181,30.790600737,0.933048507181,0.174615883196,0.174615883196,,0.174615883196,-0.0030303030303,-0.000567107750473,,-0.000567107750473,,,,,,,,,,,,,,,,,,,,,,,,,,,511.9,,,-34.0,-22.20931181,-0.512522580232,-1.0303030303,-0.784615384615,,,,,,,,,,,148.0,,,undefined,00404.asc,1.0,overlap,427.0,right,424.509472412,black,32.0,C,control,25.0,50.0,4000.0,50.0,50.0,0.0,washingbrush,0.0,7.0,asymm_kitchen_washingbrush,0.0,2.0,1.0,left,325.0,479.0,22471961.0,,,1.0,37.0,,,154.0,,,117.0,,,3.0,yes,180.0,240.0,2.9,33.790600737,1.02395759809,33.790600737,1.02395759809,0.191629115711,0.191629115711,0.0878787878788,0.0164461247637,,,,,,,,,,,,,,,,,,,514.9,,,202.6,214.39068819,4.94747741977,6.13939393939,4.67538461538,,,,,,,,,,,384.6,,,22471844.0,even,asymm,22471414.0,22472323.0,10516.0,130.0,upper,-30.890600737,-30.890600737,-3.6,,,542.890600737,170.20931181,170.20931181,-11.79068819,-11.79068819,-233.1,,,182.0,202.0,5.0,True,004B,left__,first,532.0
551.714366485,1.0,control,1.0,27.0,184.333333333,kitchen,no,compatible,control, 'correction smaller than 15', 'correction smaller than 15',1.0,85.0,150.0,109,348,,22487274.0,22487409,,-6.3,-19.7578679943,-0.598723272554,-19.7578679943,-0.598723272554,-0.107185540656,-0.107185540656,,0.107185540656,-0.190909090909,-0.0341772151899,,0.0341772151899,42.9,29.4421320057,0.892185818355,29.4421320057,0.892185818355,0.159722235112,0.159722235112,,-0.159722235112,1.3,0.232730560579,,-0.232730560579,,,,,,,,,,,,,,505.7,554.9,,-32.0,-24.7077071849,-0.915100266109,-0.969696969697,-1.18518518519,-16.4,-9.10770718495,-0.337322488331,-0.49696969697,-0.607407407407,,,,,,588.0,603.6,,undefined,00404.asc,2.0,zero,457.0,left,458.827557786,black,32.0,D,control,25.0,50.0,4000.0,50.0,50.0,0.0,spoon,0.0,9.0,asymm_kitchen_spoon,1.0,3.0,1.0,left,388.0,557.0,22487215.0,22487385,,2.0,59.0,24,,169.0,304,,110.0,280,,3.0,yes,180.0,240.0,-0.5,-13.9578679943,-0.422965696796,-13.9578679943,-0.422965696796,-0.0757208028623,-0.0757208028623,-0.0151515151515,-0.00271247739602,-9.8,-23.2578679943,-0.704783878615,-23.2578679943,-0.704783878615,-0.126172882428,-0.126172882428,-0.29696969697,-0.053164556962,,,,,,,,,,511.5,502.2,,-245.2,-237.907707185,-8.81139656241,-7.4303030303,-9.08148148148,-19.7,-12.4077071849,-0.459544710554,-0.59696969697,-0.72962962963,,,,,,374.8,600.3,,22487105.0,even,asymm,22486635.0,22487662.0,10519.0,133.0,lower,13.4578679943,13.4578679943,-8.9,37.7,,498.542132006,612.707707185,612.707707185,-7.29229281505,-7.29229281505,215.6,225.5,,620.0,-236.0,-7.0,True,004B,right__,first,588.0
593.038898027,1.0,control,1.0,21.3333333333,176.333333333,kitchen,no,incompatible,control, 'correction smaller than 15', 'correction smaller than 15',1.0,85.0,150.0,232,256,,22501947.0,22502203,,-6.6,-8.41524104517,-0.255007304399,-8.41524104517,-0.255007304399,-0.0477234841881,-0.0477234841881,,-0.0477234841881,-0.2,-0.0374291115312,,-0.0374291115312,-46.8,-48.6152410452,-1.47318912258,-48.6152410452,-1.47318912258,-0.275700799878,-0.275700799878,,-0.275700799878,-1.41818181818,-0.265406427221,,-0.265406427221,,,,,,,,,,,,,,505.4,465.2,,-6.8,1.02489626572,0.0480420124556,-0.206060606061,-0.31875,-0.4,7.42489626572,0.348042012456,-0.0121212121212,-0.01875,,,,,,612.2,618.6,,undefined,00404.asc,2.0,zero,488.0,right,437.831890447,black,32.0,C,control,25.0,50.0,4000.0,50.0,50.0,0.0,knife,0.0,9.0,asymm_kitchen_knife,1.0,3.0,1.0,left,411.0,601.0,22501894.0,22502181,,2.0,53.0,22,,190.0,446,,137.0,424,,3.0,yes,180.0,240.0,-1.5,-3.31524104517,-0.100461849854,-3.31524104517,-0.100461849854,-0.018800988914,-0.018800988914,-0.0454545454545,-0.00850661625709,-10.1,-11.9152410452,-0.36106791046,-11.9152410452,-0.36106791046,-0.0675722554547,-0.0675722554547,-0.306060606061,-0.0572778827977,,,,,,,,,,510.5,501.9,,-221.1,-213.275103734,-9.99727048754,-6.7,-10.3640625,18.5,26.3248962657,1.23397951246,0.560606060606,0.8671875,,,,,,397.9,637.5,,22501757.0,even,asymm,22501317.0,22502358.0,10521.0,135.0,lower,1.81524104517,1.81524104517,-13.2,-41.1,,510.184758955,611.175103734,611.175103734,-7.82489626572,-7.82489626572,250.5,238.2,,619.0,-235.0,-7.0,True,004B,right__,first,612.2
664.147817175,1.0,control,1.0,32.0,176.0,garage,no,compatible,control, 'correction awayHandle', 'correction awayHandle',2.0,85.0,150.0,137,429,,22519740.0,22519892,,-2.1,19.0258078553,0.576539631978,19.0258078553,0.576539631978,0.108101180996,0.108101180996,,0.108101180996,-0.0636363636364,-0.0119318181818,,-0.0119318181818,-29.0,-7.87419214474,-0.238611883174,-7.87419214474,-0.238611883174,-0.0447397280951,-0.0447397280951,,-0.0447397280951,-0.878787878788,-0.164772727273,,-0.164772727273,,,,,,,,,,,,,,509.9,483.0,,-6.3,-8.00183350261,-0.250057296957,-0.190909090909,-0.196875,-10.3,-12.0018335026,-0.375057296957,-0.312121212121,-0.321875,,,,,,566.7,562.7,,undefined,00404.asc,2.0,overlap,566.0,right,385.589600504,black,32.0,C,control,25.0,50.0,4000.0,50.0,50.0,0.0,wrench,0.0,7.0,asymm_garage_wrench,1.0,2.0,2.0,right,481.0,672.0,22519684.0,22519879,,2.0,56.0,13,,191.0,343,,135.0,330,,3.0,yes,180.0,240.0,15.5,36.6258078553,1.10987296531,36.6258078553,1.10987296531,0.208101180996,0.208101180996,0.469696969697,0.0880681818182,-8.5,12.6258078553,0.382600238038,12.6258078553,0.382600238038,0.0717375446322,0.0717375446322,-0.257575757576,-0.0482954545455,,,,,,,,,,527.5,503.5,,-183.4,-185.101833503,-5.78443229696,-5.55757575758,-5.73125,7.6,5.89816649739,0.184317703043,0.230303030303,0.2375,,,,,,389.6,580.6,,22519549.0,even,asymm,22519159.0,22520221.0,10524.0,138.0,lower,-21.1258078553,-21.1258078553,-7.7,-22.2,,533.125807855,574.701833503,574.701833503,1.70183350261,1.70183350261,197.7,191.4,,573.0,-189.0,-6.0,True,004B,left__,first,566.7
608.181661154,1.0,control,1.0,43.3333333333,176.333333333,kitchen,no,compatible,control, 'correction awayHandle', 'correction awayHandle',1.0,85.0,150.0,131,339,,22564566.0,22564717,,-8.4,-39.290600737,-1.19062426476,-39.290600737,-1.19062426476,-0.222820041987,-0.222820041987,,0.222820041987,-0.254545454545,-0.0476370510397,,0.0476370510397,30.2,-0.690600736957,-0.0209272950593,-0.690600736957,-0.0209272950593,-0.0039164503041,-0.0039164503041,,0.0039164503041,0.915151515152,0.171266540643,,-0.171266540643,,,,,,,,,,,,,,503.6,542.2,,-1.8,9.99068818995,0.230554342845,-0.0545454545455,-0.0415384615385,-32.7,-20.90931181,-0.482522580232,-0.990909090909,-0.754615384615,,,,,,197.2,166.3,,undefined,00404.asc,2.0,overlap,470.0,left,389.182196884,black,32.0,D,control,25.0,50.0,4000.0,50.0,50.0,0.0,washingbrush,0.0,8.0,asymm_kitchen_washingbrush,1.0,3.0,1.0,left,391.0,613.0,22564513.0,22564699,,2.0,53.0,18,,222.0,373,,169.0,355,,3.0,yes,180.0,240.0,5.4,-25.490600737,-0.772442446574,-25.490600737,-0.772442446574,-0.144559172421,-0.144559172421,0.163636363636,0.0306238185255,-13.1,-43.990600737,-1.33304850718,-43.990600737,-1.33304850718,-0.249474106259,-0.249474106259,-0.39696969697,-0.0742911153119,,,,,,,,,,517.4,498.9,,184.4,196.19068819,4.52747741977,5.58787878788,4.25538461538,-21.0,-9.20931181005,-0.212522580232,-0.636363636364,-0.484615384615,,,,,,383.4,178.0,,22564344.0,even,asymm,22563944.0,22564957.0,10530.0,144.0,upper,30.890600737,30.890600737,-13.6,21.8,,481.109399263,187.20931181,187.20931181,-11.79068819,-11.79068819,-206.8,-217.0,,199.0,185.0,5.0,True,004B,right__,first,581.2
558.82133609,1.0,control,1.0,66.6666666667,162.666666667,garage,no,compatible,control, 'correction awayHandle', 'correction awayHandle',2.0,85.0,150.0,456,,,22576481.0,,,6.5,42.9525052012,1.3015910667,42.9525052012,1.3015910667,0.264052286073,0.264052286073,,0.264052286073,0.19696969697,0.0399590163934,,0.0399590163934,,,,,,,,,,,,,,,,,,,,,,,,,,,518.5,,,-13.4,-13.816775653,-0.207251634795,-0.406060606061,-0.201,,,,,,,,,,,603.6,,,undefined,00404.asc,1.0,zero,456.0,right,508.570707428,black,32.0,C,control,25.0,50.0,4000.0,50.0,50.0,0.0,mallet,0.0,9.0,asymm_garage_mallet,0.0,4.0,2.0,right,358.0,564.0,22576417.0,,,1.0,64.0,,,206.0,,,142.0,,,3.0,yes,180.0,240.0,3.3,39.7525052012,1.20462136973,39.7525052012,1.20462136973,0.244380154925,0.244380154925,0.1,0.0202868852459,,,,,,,,,,,,,,,,,,,515.3,,,-244.3,-244.716775653,-3.6707516348,-7.40303030303,-3.6645,,,,,,,,,,,372.7,,,22576275.0,even,asymm,22575765.0,22576839.0,10531.0,145.0,lower,-36.4525052012,-36.4525052012,10.7,,,548.452505201,617.416775653,617.416775653,0.416775653024,0.416775653024,217.8,,,617.0,-233.0,-7.0,True,004B,left__,first,603.6
544.158486092,1.0,control,1.0,42.6666666667,176.0,kitchen,no,compatible,control, 'correction smaller than 15', 'correction smaller than 15',1.0,85.0,150.0,193,247,,22587616.0,22587831,,-8.8,-20.8262630064,-0.631098878982,-20.8262630064,-0.631098878982,-0.118331039809,-0.118331039809,,0.118331039809,-0.266666666667,-0.05,,0.05,41.6,29.5737369936,0.896173848291,29.5737369936,0.896173848291,0.168032596555,0.168032596555,,-0.168032596555,1.26060606061,0.236363636364,,-0.236363636364,,,,,,,,,,,,,,503.2,553.6,,-11.5,-13.9647558943,-0.327298966273,-0.348484848485,-0.26953125,20.6,18.1352441057,0.425044783727,0.624242424242,0.4828125,,,,,,578.5,610.6,,undefined,00404.asc,2.0,zero,440.0,left,353.179888842,black,32.0,D,control,25.0,50.0,4000.0,50.0,50.0,0.0,spoon2,0.0,9.0,asymm_kitchen_spoon2,1.0,4.0,1.0,left,360.0,549.0,22587565.0,22587811,,2.0,51.0,20,,189.0,404,,138.0,384,,3.0,yes,180.0,240.0,7.0,-5.02626300639,-0.152311000194,-5.02626300639,-0.152311000194,-0.0285583125363,-0.0285583125363,0.212121212121,0.0397727272727,-16.1,-28.1262630064,-0.852311000194,-28.1262630064,-0.852311000194,-0.159808312536,-0.159808312536,-0.487878787879,-0.0914772727273,,,,,,,,,,519.0,495.9,,-210.3,-212.764755894,-4.98667396627,-6.37272727273,-4.92890625,21.6,19.1352441057,0.448482283727,0.654545454545,0.50625,,,,,,379.7,611.6,,22587427.0,even,asymm,22587066.0,22587976.0,10533.0,147.0,lower,12.0262630064,12.0262630064,-17.4,32.9,,499.973736994,592.464755894,592.464755894,2.46475589433,2.46475589433,224.0,224.0,,590.0,-206.0,-7.0,True,004B,right__,first,578.5
587.545625154,1.0,control,1.0,32.0,176.0,garage,no,incompatible,control, 'correction awayHandle', 'correction awayHandle',2.0,85.0,150.0,154,361,,22627769.0,22627942,,-5.0,-26.1258078553,-0.791691147129,-26.1258078553,-0.791691147129,-0.148442090087,-0.148442090087,,0.148442090087,-0.151515151515,-0.0284090909091,,0.0284090909091,23.7,2.57419214474,0.0780058225678,2.57419214474,0.0780058225678,0.0146260917315,0.0146260917315,,-0.0146260917315,0.718181818182,0.134659090909,,-0.134659090909,,,,,,,,,,,,,,507.0,535.7,,-11.6,-13.3018335026,-0.415682296957,-0.351515151515,-0.3625,-17.7,-19.4018335026,-0.606307296957,-0.536363636364,-0.553125,,,,,,144.4,138.3,,undefined,00404.asc,2.0,zero,515.0,left,385.714011666,black,32.0,D,control,25.0,50.0,4000.0,50.0,50.0,0.0,wrench,0.0,8.0,asymm_garage_wrench,1.0,3.0,2.0,right,437.0,595.0,22627732.0,22627925,,2.0,37.0,17,,158.0,331,,121.0,314,,3.0,yes,180.0,240.0,-0.9,-22.0258078553,-0.667448722887,-22.0258078553,-0.667448722887,-0.125146635541,-0.125146635541,-0.0272727272727,-0.00511363636364,-8.2,-29.3258078553,-0.888660844099,-29.3258078553,-0.888660844099,-0.166623908269,-0.166623908269,-0.248484848485,-0.0465909090909,,,,,,,,,,511.1,503.8,,239.6,237.898166497,7.43431770304,7.26060606061,7.4875,-4.9,-6.60183350261,-0.206307296957,-0.148484848485,-0.153125,,,,,,395.6,151.1,,22627611.0,even,asymm,22627221.0,22628206.0,10538.0,152.0,upper,21.1258078553,21.1258078553,-7.6,17.2,,490.874192145,157.701833503,157.701833503,1.70183350261,1.70183350261,-233.6,-242.5,,156.0,228.0,6.0,True,004B,right__,first,528.4
606.877091973,1.0,control,1.0,21.3333333333,176.333333333,kitchen,no,compatible,control, 'correction smaller than 15', 'correction smaller than 15',1.0,85.0,150.0,109,164,339,22653150.0,22653282,22653467,3.8,5.61524104517,0.170158819551,5.61524104517,0.170158819551,0.0318444671749,0.0318444671749,,-0.0318444671749,0.115151515152,0.021550094518,,-0.021550094518,-2.2,-0.384758954827,-0.0116593622675,-0.384758954827,-0.0116593622675,-0.00218199785346,-0.00218199785346,,0.00218199785346,-0.0666666666667,-0.0124763705104,,0.0124763705104,-51.0,-49.1847589548,-1.49044724106,-49.1847589548,-1.49044724106,-0.278930580084,-0.278930580084,,0.278930580084,-1.54545454545,-0.289224952741,,0.289224952741,515.8,509.8,461.0,109.1,116.924896266,5.48085451246,3.30606060606,5.1140625,7.7,15.5248962657,0.727729512456,0.233333333333,0.3609375,-33.1,-25.2751037343,-1.18477048754,-1.00303030303,-1.5515625,267.1,165.7,124.9,undefined,00404.asc,3.0,overlap,612.0,left,486.692151542,black,32.0,D,control,25.0,50.0,4000.0,50.0,50.0,0.0,knife,0.0,10.0,asymm_kitchen_knife,1.0,4.0,1.0,left,558.0,614.0,22653127.0,22653261,22653448,3.0,23.0,21,19,56.0,188,373,33.0,167,354,3.0,yes,180.0,240.0,-3.2,-1.38475895483,-0.0419623925705,-1.38475895483,-0.0419623925705,-0.00785307535819,-0.00785307535819,-0.0969696969697,-0.0181474480151,9.3,11.1152410452,0.336825486217,11.1152410452,0.336825486217,0.0630353934509,0.0630353934509,0.281818181818,0.052741020794,-12.2,-10.3847589548,-0.314689665298,-10.3847589548,-0.314689665298,-0.0588927729007,-0.0588927729007,-0.369696969697,-0.0691871455577,508.8,521.3,499.8,196.5,204.324896266,9.57772951246,5.95454545455,9.2109375,91.4,99.2248962657,4.65116701246,2.7696969697,4.284375,-4.8,3.02489626572,0.141792012456,-0.145454545455,-0.225,354.5,249.4,153.2,22653094.0,even,asymm,22652604.0,22653708.0,10543.0,157.0,upper,-1.81524104517,-1.81524104517,8.3,-11.2,-48.5,513.815241045,150.175103734,150.175103734,-7.82489626572,-7.82489626572,-135.2,-231.9,-249.7,158.0,226.0,6.0,True,004B,left__,first,651.1
544.68323658,1.0,control,1.0,24.0,181.333333333,kitchen,no,incompatible,control, 'correction towardsHandle', 'correction towardsHandle',1.0,85.0,150.0,459,,,22683960.0,,,-1.2,-22.9534568235,-0.695559297683,-22.9534568235,-0.695559297683,-0.126581563365,-0.126581563365,,-0.126581563365,-0.0363636363636,-0.00661764705882,,-0.00661764705882,,,,,,,,,,,,,,,,,,,,,,,,,,,510.8,,,-46.0,-38.5597742043,-1.60665725851,-1.39393939394,-1.91666666667,,,,,,,,,,,537.0,,,undefined,00404.asc,1.0,zero,459.0,right,366.624054347,black,32.0,C,control,25.0,50.0,4000.0,50.0,50.0,0.0,sharpeningsteel,0.0,10.0,asymm_kitchen_sharpeningsteel,0.0,4.0,1.0,left,357.0,550.0,22683911.0,,,1.0,49.0,,,193.0,,,144.0,,,3.0,yes,180.0,240.0,6.6,-15.1534568235,-0.45919566132,-15.1534568235,-0.45919566132,-0.0835668574828,-0.0835668574828,0.2,0.0363970588235,,,,,,,,,,,,,,,,,,,518.6,,,-200.8,-193.359774204,-8.05665725851,-6.08484848485,-8.36666666667,,,,,,,,,,,382.2,,,22683767.0,even,asymm,22683397.0,22684317.0,10549.0,163.0,lower,21.7534568235,21.7534568235,-7.8,,,490.246543176,575.559774204,575.559774204,-7.44022579572,-7.44022579572,194.5,,,583.0,-199.0,-6.0,True,004B,right__,first,537.0
722.179851971,1.0,control,1.0,29.3333333333,173.333333333,garage,no,compatible,control, 'correction smaller than 15', 'correction smaller than 15',2.0,85.0,150.0,204,417,,22694488.0,22694713,,0.4,-0.805751320639,-0.024416706686,-0.805751320639,-0.024416706686,-0.00464856531138,-0.00464856531138,,-0.00464856531138,0.0121212121212,0.00230769230769,,0.00230769230769,-48.0,-49.2057513206,-1.49108337335,-49.2057513206,-1.49108337335,-0.283879334542,-0.283879334542,,-0.283879334542,-1.45454545455,-0.276923076923,,-0.276923076923,,,,,,,,,,,,,,512.4,464.0,,19.4,20.6852461995,0.70517884771,0.587878787879,0.661363636364,-26.3,-25.0147538005,-0.852775697744,-0.79696969697,-0.896590909091,,,,,,186.4,140.7,,undefined,00404.asc,2.0,overlap,621.0,right,320.125506521,black,32.0,C,control,25.0,50.0,4000.0,50.0,50.0,0.0,chisel2,0.0,10.0,asymm_garage_chisel2,1.0,5.0,2.0,right,540.0,730.0,22694457.0,22694694,,2.0,31.0,19,,190.0,415,,159.0,396,,3.0,yes,180.0,240.0,-2.1,-3.30575132064,-0.100174282444,-3.30575132064,-0.100174282444,-0.0190716422345,-0.0190716422345,-0.0636363636364,-0.0121153846154,-13.8,-15.0057513206,-0.454719736989,-15.0057513206,-0.454719736989,-0.0865716422345,-0.0865716422345,-0.418181818182,-0.0796153846154,,,,,,,,,,509.9,498.2,,225.9,227.1852462,7.74495157498,6.84545454545,7.70113636364,-0.6,0.685246199506,0.0233606658923,-0.0181818181818,-0.0204545454545,,,,,,392.9,166.4,,22694298.0,even,asymm,22693968.0,22695028.0,10550.0,164.0,upper,1.20575132064,1.20575132064,-13.9,-39.1,,510.794248679,165.7147538,165.7147538,-1.28524619951,-1.28524619951,-218.5,-233.3,,167.0,217.0,6.0,True,004B,right__,first,570.4
971.553033943,1.0,control,1.0,66.6666666667,162.666666667,garage,no,incompatible,control, 'correction awayHandle', 'correction awayHandle',2.0,85.0,150.0,176,728,,22716464.0,22716665,,-34.7,-71.1525052012,-2.15613652125,-71.1525052012,-2.15613652125,-0.43741294181,-0.43741294181,,0.43741294181,-1.05151515152,-0.213319672131,,0.213319672131,-9.9,-46.3525052012,-1.40462136973,-46.3525052012,-1.40462136973,-0.284953925417,-0.284953925417,,0.284953925417,-0.3,-0.0608606557377,,0.0608606557377,,,,,,,,,,,,,,477.3,502.1,,-13.2,-13.616775653,-0.204251634795,-0.4,-0.198,-28.1,-28.516775653,-0.427751634795,-0.851515151515,-0.4215,,,,,,166.8,151.9,,undefined,00404.asc,2.0,zero,904.0,left,440.030882345,black,32.0,D,control,25.0,50.0,4000.0,50.0,50.0,0.0,mallet,0.0,10.0,asymm_garage_mallet,1.0,5.0,2.0,right,834.0,977.0,22716432.0,22716642,,2.0,32.0,23,,143.0,344,,111.0,321,,3.0,yes,180.0,240.0,-4.7,-41.1525052012,-1.24704561216,-41.1525052012,-1.24704561216,-0.252986712302,-0.252986712302,-0.142424242424,-0.028893442623,-44.4,-80.8525052012,-2.45007591519,-80.8525052012,-2.45007591519,-0.497044089351,-0.497044089351,-1.34545454545,-0.272950819672,,,,,,,,,,507.3,467.6,,206.8,206.383224347,3.0957483652,6.26666666667,3.102,-5.4,-5.81677565302,-0.0872516347954,-0.163636363636,-0.081,,,,,,386.8,174.6,,22716321.0,even,asymm,22715871.0,22717298.0,10553.0,167.0,upper,36.4525052012,36.4525052012,-43.0,-15.8,,475.547494799,180.416775653,180.416775653,0.416775653024,0.416775653024,-211.3,-221.6,,180.0,204.0,6.0,True,004B,right__,first,550.8
668.098210757,1.0,control,1.0,29.3333333333,173.333333333,garage,no,incompatible,control, 'correction smaller than 15', 'correction smaller than 15',2.0,85.0,150.0,171,347,,22795454.0,22795644,,-4.9,-3.69424867936,-0.111946929678,-3.69424867936,-0.111946929678,-0.0213129731502,-0.0213129731502,,0.0213129731502,-0.148484848485,-0.0282692307692,,0.0282692307692,24.5,25.7057513206,0.778962161231,25.7057513206,0.778962161231,0.148302411465,0.148302411465,,-0.148302411465,0.742424242424,0.141346153846,,-0.141346153846,,,,,,,,,,,,,,507.1,536.5,,5.9,7.18524619951,0.244951574983,0.178787878788,0.201136363636,-32.9,-31.6147538005,-1.07777569774,-0.99696969697,-1.12159090909,,,,,,152.9,114.1,,undefined,00404.asc,2.0,overlap,518.0,left,383.044418647,black,32.0,D,control,25.0,50.0,4000.0,50.0,50.0,0.0,chisel2,0.0,11.0,asymm_garage_chisel2,1.0,6.0,2.0,right,441.0,675.0,22795402.0,22795627,,2.0,52.0,17,,234.0,424,,182.0,407,,3.0,yes,180.0,240.0,-1.3,-0.094248679361,-0.0028560205867,-0.094248679361,-0.0028560205867,-0.000543742380929,-0.000543742380929,-0.0393939393939,-0.0075,-11.1,-9.89424867936,-0.299825717556,-9.89424867936,-0.299825717556,-0.0570822039194,-0.0570822039194,-0.336363636364,-0.0640384615385,,,,,,,,,,510.7,500.9,,246.8,248.0852462,8.45745157498,7.47878787879,8.41363636364,-19.3,-18.0147538005,-0.614139334108,-0.584848484848,-0.657954545455,,,,,,393.8,127.7,,22795220.0,even,asymm,22794830.0,22795895.0,10564.0,178.0,upper,-1.20575132064,-1.20575132064,-12.6,19.8,,513.205751321,145.7147538,145.7147538,-1.28524619951,-1.28524619951,-254.4,-263.3,,147.0,237.0,6.0,True,004B,left__,first,536.9
514.016627541,1.0,control,1.0,64.3333333333,165.666666667,garage,no,compatible,control, 'correction awayHandle', 'correction awayHandle',2.0,85.0,150.0,165,288,,22809311.0,22809495,,17.0,66.2380396484,2.00721332268,66.2380396484,2.00721332268,0.399827201097,0.399827201097,,0.399827201097,0.515151515152,0.102615694165,,0.102615694165,6.4,55.6380396484,1.68600120147,55.6380396484,1.68600120147,0.335843297677,0.335843297677,,0.335843297677,0.193939393939,0.0386317907445,,0.0386317907445,,,,,,,,,,,,,,529.0,518.4,,19.6,13.7495749726,0.213723963305,0.593939393939,0.304663212435,-37.1,-42.9504250274,-0.667623186954,-1.12424242424,-0.576683937824,,,,,,208.6,151.9,,undefined,00404.asc,2.0,overlap,453.0,right,350.280216628,black,32.0,C,control,25.0,50.0,4000.0,50.0,50.0,0.0,hammer,0.0,10.0,asymm_garage_hammer,1.0,5.0,2.0,right,371.0,521.0,22809281.0,22809478,,2.0,30.0,17,,150.0,334,,120.0,317,,3.0,yes,180.0,240.0,-0.3,48.9380396484,1.48297089844,48.9380396484,1.48297089844,0.295400641741,0.295400641741,-0.00909090909091,-0.00181086519115,10.8,60.0380396484,1.8193345348,60.0380396484,1.8193345348,0.362402653814,0.362402653814,0.327272727273,0.0651911468813,,,,,,,,,,511.7,522.8,,199.1,193.249574973,3.00387940372,6.03333333333,3.09481865285,-2.1,-7.9504250274,-0.123581736177,-0.0636363636364,-0.0326424870466,,,,,,388.1,186.9,,22809161.0,even,asymm,22808801.0,22809682.0,10567.0,181.0,upper,-49.2380396484,-49.2380396484,12.0,7.1,,561.238039648,194.850425027,194.850425027,5.8504250274,5.8504250274,-194.3,-222.7,,189.0,195.0,5.0,True,004B,left__,first,592.6
1064.48347745,1.0,control,1.0,24.0,181.333333333,kitchen,no,compatible,control, 'correction towardsHandle', 'correction towardsHandle',1.0,85.0,150.0,310,205,449,22828017.0,22828353,22828566,3.8,25.5534568235,0.774347176471,25.5534568235,0.774347176471,0.140919798659,0.140919798659,,-0.140919798659,0.115151515152,0.0209558823529,,-0.0209558823529,79.3,101.053456824,3.06222596435,101.053456824,3.06222596435,0.557280092777,0.557280092777,,-0.557280092777,2.40303030303,0.437316176471,,-0.437316176471,93.2,114.953456824,3.48343808556,114.953456824,3.48343808556,0.633934504542,0.633934504542,,-0.633934504542,2.82424242424,0.513970588235,,-0.513970588235,515.8,591.3,605.2,-38.7,-31.2597742043,-1.30249059184,-1.17272727273,-1.6125,-0.7,6.74022579572,0.280842741488,-0.0212121212121,-0.0291666666667,3.3,10.7402257957,0.447509408155,0.1,0.1375,534.3,572.3,576.3,undefined,00404.asc,3.0,zero,964.0,left,388.891621742,black,32.0,D,control,25.0,50.0,4000.0,50.0,50.0,0.0,sharpeningsteel,0.0,11.0,asymm_kitchen_sharpeningsteel,1.0,5.0,1.0,left,895.0,1069.0,22827969.0,22828329,22828560,3.0,48.0,24,6,174.0,510,723,126.0,486,717,3.0,yes,180.0,240.0,-1.2,20.5534568235,0.622832024956,20.5534568235,0.622832024956,0.113346269248,0.113346269248,-0.0363636363636,-0.00661764705882,4.0,25.7534568235,0.780407782532,25.7534568235,0.780407782532,0.142022739836,0.142022739836,0.121212121212,0.0220588235294,81.0,102.753456824,3.11374111587,102.753456824,3.11374111587,0.566655092777,0.566655092777,2.45454545455,0.446691176471,510.8,516.0,593.0,-175.8,-168.359774204,-7.01499059184,-5.32727272727,-7.325,-0.3,7.14022579572,0.297509408155,-0.00909090909091,-0.0125,7.7,15.1402257957,0.630842741488,0.233333333333,0.320833333333,397.2,572.7,580.7,22827843.0,even,asymm,22827453.0,22828912.0,10571.0,185.0,lower,-21.7534568235,-21.7534568235,-0.2,75.9,95.0,533.753456824,565.559774204,565.559774204,-7.44022579572,-7.44022579572,183.4,193.8,193.4,573.0,-189.0,-6.0,True,004B,left__,first,534.3
645.791026928,1.0,control,1.0,22.0,144.666666667,kitchen,no,incompatible,control, 'correction smaller than 15', 'correction smaller than 15',1.0,85.0,150.0,165,321,,22863304.0,22863488,,-10.2,-9.43589725192,-0.285936280361,-9.43589725192,-0.285936280361,-0.0652250962114,-0.0652250962114,,-0.0652250962114,-0.309090909091,-0.0705069124424,,-0.0705069124424,-43.6,-42.8358972519,-1.29805749248,-42.8358972519,-1.29805749248,-0.296100672248,-0.296100672248,,-0.296100672248,-1.32121212121,-0.301382488479,,-0.301382488479,,,,,,,,,,,,,,501.8,468.4,,-60.2,-54.0064931194,-2.45484059634,-1.82424242424,-2.73636363636,-6.1,0.0935068805628,0.00425031275286,-0.184848484848,-0.277272727273,,,,,,508.8,562.9,,undefined,00404.asc,2.0,overlap,486.0,right,373.999197995,black,32.0,C,control,25.0,50.0,4000.0,50.0,50.0,0.0,peeler,0.0,11.0,asymm_kitchen_peeler,1.0,6.0,1.0,left,407.0,654.0,22863258.0,22863471,,2.0,46.0,17,,247.0,431,,201.0,414,,3.0,yes,180.0,240.0,-7.9,-7.13589725192,-0.216239310664,-7.13589725192,-0.216239310664,-0.0493264786999,-0.0493264786999,-0.239393939394,-0.0546082949309,-12.7,-11.9358972519,-0.361693856119,-11.9358972519,-0.361693856119,-0.0825062022022,-0.0825062022022,-0.384848484848,-0.0877880184332,,,,,,,,,,504.1,499.3,,-174.7,-168.506493119,-7.65938605088,-5.29393939394,-7.94090909091,-27.3,-21.1064931194,-0.959386050884,-0.827272727273,-1.24090909091,,,,,,394.3,541.7,,22863057.0,even,asymm,22862677.0,22863711.0,10576.0,190.0,lower,-0.764102748085,-0.764102748085,-14.9,-33.8,,512.764102748,562.806493119,562.806493119,-6.19350688056,-6.19350688056,153.6,173.2,,569.0,-185.0,-6.0,True,004B,left__,first,508.8
523.2693903,1.0,control,2.0,66.6666666667,162.666666667,garage,no,incompatible,control, 'correction awayHandle', 'correction awayHandle',2.0,85.0,150.0,206,230,,22941514.0,22941738,,-23.5,-59.9525052012,-1.81674258185,-59.9525052012,-1.81674258185,-0.368560482794,-0.368560482794,,0.368560482794,-0.712121212121,-0.144467213115,,0.144467213115,9.9,-26.5525052012,-0.804621369732,-26.5525052012,-0.804621369732,-0.163232613942,-0.163232613942,,0.163232613942,0.3,0.0608606557377,,-0.0608606557377,,,,,,,,,,,,,,488.5,521.9,,-28.0,-28.416775653,-0.426251634795,-0.848484848485,-0.42,3.2,2.78322434698,0.0417483652046,0.0969696969697,0.048,,,,,,566.0,597.2,,undefined,00404.asc,2.0,zero,436.0,left,456.068525275,black,32.0,B,control,25.0,50.0,4000.0,50.0,50.0,0.0,mallet,0.0,12.0,asymm_garage_mallet,1.0,1.0,2.0,right,352.0,530.0,22941462.0,22941722,,2.0,52.0,16,,178.0,402,,126.0,386,,3.0,yes,180.0,240.0,6.7,-29.7525052012,-0.901591066702,-29.7525052012,-0.901591066702,-0.182904745089,-0.182904745089,0.20303030303,0.0411885245902,-27.2,-63.6525052012,-1.92886379397,-63.6525052012,-1.92886379397,-0.391306384433,-0.391306384433,-0.824242424242,-0.167213114754,,,,,,,,,,518.7,484.8,,-204.9,-205.316775653,-3.0797516348,-6.20909090909,-3.0735,-1.5,-1.91677565302,-0.0287516347954,-0.0454545454545,-0.0225,,,,,,389.1,592.5,,22941336.0,even,asymm,22940876.0,22941866.0,10585.0,199.0,lower,36.4525052012,36.4525052012,-30.9,5.9,,475.547494799,594.416775653,594.416775653,0.416775653024,0.416775653024,209.9,214.1,,594.0,-210.0,-7.0,True,004B,right__,first,566.0
573.28418493,1.0,control,2.0,42.6666666667,176.0,kitchen,no,incompatible,control, 'correction smaller than 15', 'correction smaller than 15',1.0,85.0,150.0,235,281,,22963592.0,22963849,,5.4,17.4262630064,0.528068575951,17.4262630064,0.528068575951,0.0990128579909,0.0990128579909,,0.0990128579909,0.163636363636,0.0306818181818,,0.0306818181818,-53.1,-41.0737369936,-1.24465869678,-41.0737369936,-1.24465869678,-0.233373505645,-0.233373505645,,-0.233373505645,-1.60909090909,-0.301704545455,,-0.301704545455,,,,,,,,,,,,,,517.4,458.9,,-15.2,-17.6647558943,-0.414017716273,-0.460606060606,-0.35625,-25.9,-28.3647558943,-0.664798966273,-0.784848484848,-0.60703125,,,,,,135.8,125.1,,undefined,00404.asc,2.0,overlap,516.0,right,396.223386639,black,32.0,C,control,25.0,50.0,4000.0,50.0,50.0,0.0,spoon2,0.0,12.0,asymm_kitchen_spoon2,1.0,1.0,1.0,left,436.0,580.0,22963556.0,22963829,,2.0,36.0,20,,144.0,401,,108.0,381,,3.0,yes,180.0,240.0,-0.2,11.8262630064,0.358371606254,11.8262630064,0.358371606254,0.0671946761727,0.0671946761727,-0.00606060606061,-0.00113636363636,-1.9,10.1262630064,0.306856454739,10.1262630064,0.306856454739,0.0575355852636,0.0575355852636,-0.0575757575758,-0.0107954545455,,,,,,,,,,511.8,510.1,,241.5,239.035244106,5.60238853373,7.31818181818,5.66015625,-12.3,-14.7647558943,-0.346048966273,-0.372727272727,-0.28828125,,,,,,392.5,138.7,,22963448.0,even,asymm,22963048.0,22964028.0,10588.0,202.0,upper,-12.0262630064,-12.0262630064,-1.8,-43.0,,524.026263006,153.464755894,153.464755894,2.46475589433,2.46475589433,-246.5,-254.1,,151.0,233.0,6.0,True,004B,left__,first,519.8
513.390743443,1.0,control,2.0,27.0,184.333333333,kitchen,no,incompatible,control, 'correction smaller than 15', 'correction smaller than 15',1.0,85.0,150.0,196,252,,22970818.0,22971029,,-25.2,-11.7421320057,-0.355822181991,-11.7421320057,-0.355822181991,-0.0637005352932,-0.0637005352932,,-0.0637005352932,-0.763636363636,-0.136708860759,,-0.136708860759,-65.0,-51.5421320057,-1.56188278805,-51.5421320057,-1.56188278805,-0.279613736017,-0.279613736017,,-0.279613736017,-1.9696969697,-0.352622061483,,-0.352622061483,,,,,,,,,,,,,,486.8,447.0,,-39.0,-31.7077071849,-1.17435952537,-1.18181818182,-1.44444444444,-47.3,-40.0077071849,-1.48176693278,-1.43333333333,-1.75185185185,,,,,,124.0,115.7,,undefined,00404.asc,2.0,zero,448.0,right,412.363552688,black,32.0,C,control,25.0,50.0,4000.0,50.0,50.0,0.0,spoon,0.0,12.0,asymm_kitchen_spoon,1.0,1.0,1.0,left,362.0,521.0,22970779.0,22971016,,2.0,39.0,13,,159.0,370,,120.0,357,,3.0,yes,180.0,240.0,-4.2,9.25786799428,0.280541454372,9.25786799428,0.280541454372,0.0502235153397,0.0502235153397,-0.127272727273,-0.0227848101266,-36.7,-23.2421320057,-0.704307030476,-23.2421320057,-0.704307030476,-0.126087515402,-0.126087515402,-1.11212121212,-0.199095840868,,,,,,,,,,507.8,475.3,,203.4,210.692292815,7.80341825241,6.16363636364,7.53333333333,-40.0,-32.7077071849,-1.21139656241,-1.21212121212,-1.48148148148,,,,,,366.4,123.0,,22970659.0,even,asymm,22970239.0,22971180.0,10589.0,203.0,upper,-13.4578679943,-13.4578679943,-32.3,-60.1,,525.457867994,155.707707185,155.707707185,-7.29229281505,-7.29229281505,-255.0,-265.1,,163.0,221.0,6.0,True,004B,left__,first,508.0
860.293451923,1.0,control,2.0,24.0,181.333333333,kitchen,no,incompatible,control, 'correction towardsHandle', 'correction towardsHandle',1.0,85.0,150.0,436,139,,22989963.0,22990419,,13.6,-8.15345682355,-0.247074449198,-8.15345682355,-0.247074449198,-0.0449639163063,-0.0449639163063,,-0.0449639163063,0.412121212121,0.075,,0.075,-30.8,-52.5534568235,-1.59252899465,-52.5534568235,-1.59252899465,-0.289816857483,-0.289816857483,,-0.289816857483,-0.933333333333,-0.169852941176,,-0.169852941176,,,,,,,,,,,,,,525.6,481.2,,-46.7,-39.2597742043,-1.63582392518,-1.41515151515,-1.94583333333,-29.0,-21.5597742043,-0.898323925178,-0.878787878788,-1.20833333333,,,,,,524.3,542.0,,undefined,00404.asc,2.0,zero,575.0,right,505.042597399,black,32.0,C,control,25.0,50.0,4000.0,50.0,50.0,0.0,sharpeningsteel,0.0,13.0,asymm_kitchen_sharpeningsteel,1.0,2.0,1.0,left,666.0,868.0,22989915.0,22990401,,2.0,48.0,18,,202.0,658,,154.0,640,,3.0,yes,180.0,240.0,10.8,-10.9534568235,-0.331922934047,-10.9534568235,-0.331922934047,-0.0604050927769,-0.0604050927769,0.327272727273,0.0595588235294,6.7,-15.0534568235,-0.456165358289,-15.0534568235,-0.456165358289,-0.0830153868946,-0.0830153868946,0.20303030303,0.0369485294118,,,,,,,,,,522.8,518.7,,-182.2,-174.759774204,-7.28165725851,-5.52121212121,-7.59166666667,-10.6,-3.15977420428,-0.131657258512,-0.321212121212,-0.441666666667,,,,,,388.8,560.4,,22989761.0,even,asymm,22989251.0,22990629.0,10594.0,208.0,lower,21.7534568235,21.7534568235,7.2,-23.5,,490.246543176,563.559774204,563.559774204,-7.44022579572,-7.44022579572,169.4,163.6,,571.0,-187.0,-6.0,True,004B,right__,first,524.3
561.010641459,1.0,control,2.0,29.3333333333,173.333333333,garage,no,incompatible,control, 'correction smaller than 15', 'correction smaller than 15',2.0,85.0,150.0,122,230,,22993832.0,22993980,,-13.5,-12.2942486794,-0.372552990284,-12.2942486794,-0.372552990284,-0.0709283577655,-0.0709283577655,,0.0709283577655,-0.409090909091,-0.0778846153846,,0.0778846153846,37.2,38.4057513206,1.16381064608,38.4057513206,1.16381064608,0.221571642234,0.221571642234,,-0.221571642234,1.12727272727,0.214615384615,,-0.214615384615,,,,,,,,,,,,,,498.5,549.2,,-45.0,-43.7147538005,-1.49027569774,-1.36363636364,-1.53409090909,-7.2,-5.91475380049,-0.201639334108,-0.218181818182,-0.245454545455,,,,,,514.0,551.8,,undefined,00404.asc,2.0,overlap,352.0,left,423.878943073,black,32.0,B,control,25.0,50.0,4000.0,50.0,50.0,0.0,chisel2,0.0,13.0,asymm_garage_chisel2,1.0,2.0,2.0,right,376.0,566.0,22993783.0,22993956,,2.0,49.0,24,,190.0,338,,141.0,314,,3.0,yes,180.0,240.0,-3.0,-1.79424867936,-0.0543711721018,-1.79424867936,-0.0543711721018,-0.0103514346886,-0.0103514346886,-0.0909090909091,-0.0173076923077,-19.8,-18.5942486794,-0.563462081193,-18.5942486794,-0.563462081193,-0.107274511612,-0.107274511612,-0.6,-0.114230769231,,,,,,,,,,509.0,492.2,,-170.0,-168.7147538,-5.75163933411,-5.15151515152,-5.79545454545,-13.0,-11.7147538005,-0.399366606835,-0.393939393939,-0.443181818182,,,,,,389.0,546.0,,22993642.0,even,asymm,22993212.0,22994208.0,10595.0,209.0,lower,-1.20575132064,-1.20575132064,-20.2,28.1,,513.205751321,557.7147538,557.7147538,-1.28524619951,-1.28524619951,161.4,169.7,,559.0,-175.0,-6.0,True,004B,left__,first,514.0
566.611126717,1.0,control,2.0,66.6666666667,162.666666667,garage,no,compatible,control, 'correction awayHandle', 'correction awayHandle',2.0,85.0,150.0,345,,,23009753.0,,,9.2,45.6525052012,1.38340924852,45.6525052012,1.38340924852,0.280650646729,0.280650646729,,0.280650646729,0.278787878788,0.0565573770492,,0.0565573770492,,,,,,,,,,,,,,,,,,,,,,,,,,,521.2,,,-51.7,-52.116775653,-0.781751634795,-1.56666666667,-0.7755,,,,,,,,,,,142.3,,,undefined,00404.asc,1.0,zero,345.0,right,344.873171869,black,32.0,C,control,25.0,50.0,4000.0,50.0,50.0,0.0,mallet,0.0,13.0,asymm_garage_mallet,0.0,2.0,2.0,right,384.0,574.0,23009718.0,,,1.0,35.0,,,190.0,,,155.0,,,3.0,yes,180.0,240.0,4.9,41.3525052012,1.25310621822,41.3525052012,1.25310621822,0.254216220499,0.254216220499,0.148484848485,0.0301229508197,,,,,,,,,,,,,,,,,,,516.9,,,184.4,183.983224347,2.7597483652,5.58787878788,2.766,,,,,,,,,,,378.4,,,23009563.0,even,asymm,23009213.0,23010137.0,10599.0,213.0,upper,-36.4525052012,-36.4525052012,5.7,,,548.452505201,194.416775653,194.416775653,0.416775653024,0.416775653024,-230.1,,,194.0,190.0,5.0,True,004B,left__,first,526.3
641.985540449,1.0,control,2.0,64.3333333333,165.666666667,garage,no,compatible,control, 'correction awayHandle', 'correction awayHandle',2.0,85.0,150.0,450,,,23022075.0,,,23.0,72.2380396484,2.1890315045,72.2380396484,2.1890315045,0.43604450492,0.43604450492,,0.43604450492,0.69696969697,0.138832997988,,0.138832997988,,,,,,,,,,,,,,,,,,,,,,,,,,,535.0,,,-8.0,-13.8504250274,-0.215291580737,-0.242424242424,-0.124352331606,,,,,,,,,,,202.0,,,undefined,00404.asc,1.0,overlap,450.0,right,405.765516018,black,32.0,C,control,25.0,50.0,4000.0,50.0,50.0,0.0,hammer,0.0,12.0,asymm_garage_hammer,0.0,2.0,2.0,right,477.0,647.0,23022040.0,,,1.0,35.0,,,170.0,,,135.0,,,3.0,yes,180.0,240.0,2.7,51.9380396484,1.57387998935,51.9380396484,1.57387998935,0.313509293653,0.313509293653,0.0818181818182,0.0162977867203,,,,,,,,,,,,,,,,,,,514.7,,,188.8,182.949574973,2.84377577678,5.72121212121,2.93471502591,,,,,,,,,,,398.8,,,23021905.0,even,asymm,23021495.0,23022552.0,10602.0,216.0,upper,-49.2380396484,-49.2380396484,14.0,,,561.238039648,215.850425027,215.850425027,5.8504250274,5.8504250274,-181.9,,,210.0,174.0,5.0,True,004B,left__,first,586.0
1181.89762848,1.0,control,2.0,27.0,176.333333333,garage,no,incompatible,control, 'correction towardsHandle', 'correction towardsHandle',2.0,85.0,150.0,165,155,165,23029880.0,23030059,23030239,22.9,76.7138704136,2.32466273981,76.7138704136,2.32466273981,0.435050304803,0.435050304803,,-0.435050304803,0.693939393939,0.129867674858,,-0.129867674858,9.3,63.1138704136,1.91254152769,63.1138704136,1.91254152769,0.357923650739,0.357923650739,,-0.357923650739,0.281818181818,0.052741020794,,-0.052741020794,83.7,137.513870414,4.16708698223,137.513870414,4.16708698223,0.779851817091,0.779851817091,,-0.779851817091,2.53636363636,0.474669187146,,-0.474669187146,534.9,521.3,595.7,-7.2,-1.77820108612,-0.0658592994858,-0.218181818182,-0.266666666667,-38.7,-33.2782010861,-1.23252596615,-1.17272727273,-1.43333333333,-33.0,-27.5782010861,-1.02141485504,-1.0,-1.22222222222,187.8,156.3,162.0,undefined,00404.asc,5.0,zero,891.0,left,309.625595729,black,32.0,B,control,25.0,50.0,4000.0,50.0,50.0,0.0,screwdriver,0.0,12.0,asymm_garage_screwdriver,1.0,2.0,2.0,right,1023.0,1187.0,23029847.0,23030047,23030216,5.0,33.0,12,23,164.0,343,523,131.0,331,500,3.0,yes,180.0,240.0,10.1,63.9138704136,1.93678395193,63.9138704136,1.93678395193,0.362460512743,0.362460512743,0.306060606061,0.0572778827977,15.6,69.4138704136,2.10345061859,69.4138704136,2.10345061859,0.393651439019,0.393651439019,0.472727272727,0.0884688090737,11.5,65.3138704136,1.97920819435,65.3138704136,1.97920819435,0.370400021249,0.370400021249,0.348484848485,0.0652173913043,522.1,527.6,523.5,187.5,192.921798914,7.14525181163,5.68181818182,6.94444444444,-13.3,-7.87820108612,-0.291785225412,-0.40303030303,-0.492592592593,-31.1,-25.6782010861,-0.951044484671,-0.942424242424,-1.15185185185,382.5,181.7,163.9,23029716.0,even,asymm,23029395.0,23030903.0,10604.0,218.0,upper,-53.8138704136,-53.8138704136,16.8,11.3,75.1,565.813870414,189.578201086,189.578201086,-5.42179891388,-5.42179891388,-199.4,-221.5,-217.9,195.0,189.0,5.0,True,004B,left__,first,571.8
595.457065162,1.0,control,2.0,29.3333333333,173.333333333,garage,no,compatible,control, 'correction smaller than 15', 'correction smaller than 15',2.0,85.0,150.0,180,200,,23071445.0,23071650,,1.1,-0.105751320639,-0.00320458547391,-0.105751320639,-0.00320458547391,-0.000610103772917,-0.000610103772917,,-0.000610103772917,0.0333333333333,0.00634615384615,,0.00634615384615,-38.8,-40.0057513206,-1.21229549456,-40.0057513206,-1.21229549456,-0.230802411465,-0.230802411465,,-0.230802411465,-1.17575757576,-0.223846153846,,-0.223846153846,,,,,,,,,,,,,,513.1,473.2,,-14.5,-13.2147538005,-0.450502970471,-0.439393939394,-0.494318181818,-34.2,-32.9147538005,-1.12209387956,-1.03636363636,-1.16590909091,,,,,,192.5,172.8,,undefined,00404.asc,2.0,zero,380.0,right,393.964983953,black,32.0,C,control,25.0,50.0,4000.0,50.0,50.0,0.0,chisel2,0.0,14.0,asymm_garage_chisel2,1.0,3.0,2.0,right,417.0,602.0,23071395.0,23071627,,2.0,50.0,23,,185.0,390,,135.0,367,,3.0,yes,180.0,240.0,11.8,10.5942486794,0.321037838769,10.5942486794,0.321037838769,0.0611206654579,0.0611206654579,0.357575757576,0.0680769230769,1.2,-0.00575132063892,-0.000174282443604,-0.00575132063892,-0.000174282443604,-3.31806959938e-05,-3.31806959938e-05,0.0363636363636,0.00692307692308,,,,,,,,,,523.8,513.2,,183.6,184.8852462,6.30290612044,5.56363636364,6.25909090909,-38.4,-37.1147538005,-1.26527569774,-1.16363636364,-1.30909090909,,,,,,390.6,168.6,,23071260.0,even,asymm,23070860.0,23071862.0,10614.0,228.0,upper,1.20575132064,1.20575132064,-0.6,-32.6,,510.794248679,205.7147538,205.7147538,-1.28524619951,-1.28524619951,-215.5,-209.2,,207.0,177.0,5.0,True,004B,right__,first,576.5
598.713896941,1.0,control,2.0,43.3333333333,176.333333333,kitchen,no,compatible,control, 'correction awayHandle', 'correction awayHandle',1.0,85.0,150.0,152,248,,23075543.0,23075718,,-17.6,-48.490600737,-1.46941214354,-48.490600737,-1.46941214354,-0.27499395503,-0.27499395503,,0.27499395503,-0.533333333333,-0.0998109640832,,0.0998109640832,15.3,-15.590600737,-0.472442446574,-15.590600737,-0.472442446574,-0.0884155051245,-0.0884155051245,,0.0884155051245,0.463636363636,0.0867674858223,,-0.0867674858223,,,,,,,,,,,,,,494.4,527.3,,-23.6,-11.80931181,-0.272522580232,-0.715151515152,-0.544615384615,-34.1,-22.30931181,-0.51483027254,-1.03333333333,-0.786923076923,,,,,,134.4,123.9,,undefined,00404.asc,2.0,zero,400.0,left,407.900712556,black,32.0,B,control,25.0,50.0,4000.0,50.0,50.0,0.0,washingbrush,0.0,13.0,asymm_kitchen_washingbrush,1.0,3.0,1.0,left,432.0,604.0,23075505.0,23075697,,2.0,38.0,21,,172.0,347,,134.0,326,,3.0,yes,180.0,240.0,0.2,-30.690600737,-0.93001820415,-30.690600737,-0.93001820415,-0.174048775446,-0.174048775446,0.0060606060606,0.00113421550094,-23.9,-54.790600737,-1.66032123445,-54.790600737,-1.66032123445,-0.31072174331,-0.31072174331,-0.724242424242,-0.135538752363,,,,,,,,,,512.2,488.1,,229.6,241.39068819,5.57055434285,6.95757575758,5.29846153846,-34.6,-22.80931181,-0.526368734078,-1.04848484848,-0.798461538462,,,,,,387.6,123.4,,23075371.0,even,asymm,23074961.0,23075975.0,10615.0,229.0,upper,30.890600737,30.890600737,-23.0,10.8,,481.109399263,146.20931181,146.20931181,-11.79068819,-11.79068819,-254.5,-256.6,,158.0,226.0,6.0,True,004B,right__,first,518.4
613.255096657,1.0,control,2.0,22.0,144.666666667,kitchen,no,compatible,control, 'correction smaller than 15', 'correction smaller than 15',1.0,85.0,150.0,282,,,23104965.0,,,27.0,26.2358972519,0.795027189452,26.2358972519,0.795027189452,0.181354128469,0.181354128469,,-0.181354128469,0.818181818182,0.1866359447,,-0.1866359447,,,,,,,,,,,,,,,,,,,,,,,,,,,539.0,,,-16.3,-10.1064931194,-0.459386050884,-0.493939393939,-0.740909090909,,,,,,,,,,,581.7,,,undefined,00404.asc,1.0,overlap,282.0,left,301.278388586,black,32.0,B,control,25.0,50.0,4000.0,50.0,50.0,0.0,peeler,0.0,14.0,asymm_kitchen_peeler,0.0,3.0,1.0,left,247.0,618.0,23104914.0,,,1.0,51.0,,,371.0,,,320.0,,,3.0,yes,180.0,240.0,3.5,2.73589725192,0.0829059773308,2.73589725192,0.0829059773308,0.0189117321561,0.0189117321561,0.106060606061,0.0241935483871,,,,,,,,,,,,,,,,,,,515.5,,,-208.1,-201.906493119,-9.17756786907,-6.30606060606,-9.45909090909,,,,,,,,,,,389.9,,,23104594.0,even,asymm,23104284.0,23105212.0,10622.0,236.0,lower,0.764102748085,0.764102748085,26.4,,,511.235897252,591.806493119,591.806493119,-6.19350688056,-6.19350688056,228.6,,,598.0,-214.0,-7.0,True,004B,right__,first,581.7
669.330677609,1.0,control,2.0,27.0,176.333333333,garage,no,compatible,control, 'correction towardsHandle', 'correction towardsHandle',2.0,85.0,150.0,195,157,45,23124343.0,23124563,23124737,-30.2,-84.0138704136,-2.54587486102,-84.0138704136,-2.54587486102,-0.476449170588,-0.476449170588,,-0.476449170588,-0.915151515152,-0.171266540643,,-0.171266540643,-99.8,-153.613870414,-4.65496577011,-153.613870414,-4.65496577011,-0.871156164917,-0.871156164917,,-0.871156164917,-3.02424242424,-0.565973534972,,-0.565973534972,-100.5,-154.313870414,-4.67617789132,-154.313870414,-4.67617789132,-0.87512591917,-0.87512591917,,-0.87512591917,-3.04545454545,-0.569943289225,,-0.569943289225,481.8,412.2,411.5,-2.0,3.42179891388,0.126733293107,-0.0606060606061,-0.0740740740741,5.7,11.1217989139,0.411918478292,0.172727272727,0.211111111111,-26.1,-20.6782010861,-0.765859299486,-0.790909090909,-0.966666666667,608.0,615.7,583.9,undefined,00404.asc,3.0,zero,397.0,right,389.891529873,black,32.0,C,control,25.0,50.0,4000.0,50.0,50.0,0.0,screwdriver,0.0,13.0,asymm_garage_screwdriver,1.0,3.0,2.0,right,460.0,677.0,23124285.0,23124540,23124722,3.0,58.0,23,15,217.0,437,611,159.0,414,596,3.0,yes,180.0,240.0,-0.7,-54.5138704136,-1.65193546708,-54.5138704136,-1.65193546708,-0.309152384198,-0.309152384198,-0.0212121212121,-0.00396975425331,-30.5,-84.3138704136,-2.55496577011,-84.3138704136,-2.55496577011,-0.478150493839,-0.478150493839,-0.924242424242,-0.172967863894,-91.2,-145.013870414,-4.3943597095,-145.013870414,-4.3943597095,-0.822384898376,-0.822384898376,-2.76363636364,-0.517202268431,511.3,481.5,420.8,-231.4,-225.978201086,-8.36956300319,-7.01212121212,-8.57037037037,9.0,14.4217989139,0.534140700514,0.272727272727,0.333333333333,9.1,14.5217989139,0.537844404218,0.275757575758,0.337037037037,378.6,619.0,619.1,23124126.0,even,asymm,23123726.0,23124803.0,10626.0,240.0,lower,53.8138704136,53.8138704136,-33.0,-89.8,-103.7,458.186129586,604.578201086,604.578201086,-5.42179891388,-5.42179891388,238.2,233.0,204.4,610.0,-226.0,-7.0,True,004B,right__,first,608.0
554.253962263,1.0,control,2.0,21.3333333333,176.333333333,kitchen,no,compatible,control, 'correction smaller than 15', 'correction smaller than 15',1.0,85.0,150.0,430,,,23172043.0,,,-4.6,-2.78475895483,-0.0843866349948,-2.78475895483,-0.0843866349948,-0.0157925838648,-0.0157925838648,,0.0157925838648,-0.139393939394,-0.0260869565217,,0.0260869565217,,,,,,,,,,,,,,,,,,,,,,,,,,,507.4,,,-3.3,4.52489626572,0.212104512456,-0.1,-0.1546875,,,,,,,,,,,613.7,,,undefined,00404.asc,1.0,overlap,430.0,left,399.869851255,black,32.0,B,control,25.0,50.0,4000.0,50.0,50.0,0.0,knife,0.0,15.0,asymm_kitchen_knife,0.0,4.0,1.0,left,330.0,562.0,23171991.0,,,1.0,52.0,,,232.0,,,180.0,,,3.0,yes,180.0,240.0,2.4,4.21524104517,0.127734577126,4.21524104517,0.127734577126,0.0239049586683,0.0239049586683,0.0727272727273,0.0136105860113,,,,,,,,,,,,,,,,,,,514.4,,,-219.6,-211.775103734,-9.92695798754,-6.65454545455,-10.29375,,,,,,,,,,,397.4,,,23171811.0,even,asymm,23171401.0,23172373.0,10636.0,250.0,lower,-1.81524104517,-1.81524104517,-10.1,,,513.815241045,609.175103734,609.175103734,-7.82489626572,-7.82489626572,260.7,,,617.0,-233.0,-7.0,True,004B,left__,first,613.7
530.44398173,1.0,control,2.0,43.3333333333,176.333333333,kitchen,no,incompatible,control, 'correction awayHandle', 'correction awayHandle',1.0,85.0,150.0,139,230,,23175699.0,23175864,,57.9,88.790600737,2.69062426476,88.790600737,2.69062426476,0.50353837847,0.50353837847,,0.50353837847,1.75454545455,0.328355387524,,0.328355387524,-7.9,22.990600737,0.696684870817,22.990600737,0.696684870817,0.130381478659,0.130381478659,,0.130381478659,-0.239393939394,-0.0448015122873,,-0.0448015122873,,,,,,,,,,,,,,569.9,504.1,,-3.9,7.89068818995,0.182092804383,-0.118181818182,-0.09,-36.8,-25.00931181,-0.577137964847,-1.11515151515,-0.849230769231,,,,,,205.1,172.2,,undefined,00404.asc,2.0,zero,369.0,right,492.935983101,black,32.0,C,control,25.0,50.0,4000.0,50.0,50.0,0.0,washingbrush,0.0,14.0,asymm_kitchen_washingbrush,1.0,4.0,1.0,left,299.0,536.0,23175655.0,23175840,,2.0,44.0,24,,237.0,402,,193.0,378,,3.0,yes,180.0,240.0,70.4,101.290600737,3.06941214354,101.290600737,3.06941214354,0.57442684728,0.57442684728,2.13333333333,0.399243856333,15.4,46.290600737,1.40274547688,46.290600737,1.40274547688,0.26251758452,0.26251758452,0.466666666667,0.0873345935728,,,,,,,,,,582.4,527.4,,238.0,249.79068819,5.76440049669,7.21212121212,5.49230769231,50.1,61.89068819,1.42824665054,1.51818181818,1.15615384615,,,,,,447.0,259.1,,23175462.0,even,asymm,23174962.0,23175998.0,10637.0,251.0,upper,-30.890600737,-30.890600737,34.1,-21.9,,542.890600737,197.20931181,197.20931181,-11.79068819,-11.79068819,-148.2,-200.9,,209.0,175.0,5.0,True,004B,left__,first,589.1
569.397275534,1.0,control,2.0,22.0,144.666666667,kitchen,no,incompatible,control, 'correction smaller than 15', 'correction smaller than 15',1.0,85.0,150.0,122,205,,23207080.0,23207220,,3.6,4.36410274808,0.132245537821,4.36410274808,0.132245537821,0.0301666088577,0.0301666088577,,0.0301666088577,0.109090909091,0.0248847926267,,0.0248847926267,-27.4,-26.6358972519,-0.807148401573,-26.6358972519,-0.807148401573,-0.184119105428,-0.184119105428,,-0.184119105428,-0.830303030303,-0.189400921659,,-0.189400921659,,,,,,,,,,,,,,515.6,484.6,,-4.6,1.59350688056,0.0724321309347,-0.139393939394,-0.209090909091,-6.3,-0.106493119437,-0.00484059633806,-0.190909090909,-0.286363636364,,,,,,564.4,562.7,,undefined,00404.asc,2.0,overlap,327.0,right,393.573747934,black,32.0,C,control,25.0,50.0,4000.0,50.0,50.0,0.0,peeler,0.0,15.0,asymm_kitchen_peeler,1.0,4.0,1.0,left,371.0,576.0,23207025.0,23207204,,2.0,55.0,16,,205.0,345,,150.0,329,,3.0,yes,180.0,240.0,7.4,8.16410274808,0.247397052972,8.16410274808,0.247397052972,0.0564338899637,0.0564338899637,0.224242424242,0.0511520737327,4.8,5.56410274808,0.168609174184,5.56410274808,0.168609174184,0.0384615397333,0.0384615397333,0.145454545455,0.0331797235023,,,,,,,,,,519.4,516.8,,-176.6,-170.406493119,-7.74574968725,-5.35151515152,-8.02727272727,12.5,18.6935068806,0.849704858207,0.378787878788,0.568181818182,,,,,,392.4,581.5,,23206875.0,even,asymm,23206475.0,23207451.0,10642.0,256.0,lower,-0.764102748085,-0.764102748085,2.1,-23.4,,512.764102748,562.806493119,562.806493119,-6.19350688056,-6.19350688056,197.4,181.4,,569.0,-185.0,-6.0,True,004B,left__,first,564.4
