RT,accuracy,aff_lum,block_count,boxHeight,boxWidth,cat,catch_trial,checkFixDotFailed,checkObjectFailed,comp,contrast_side,corrDirection,corrDirectionMask,correct_response,cutoff_warning_msg,dev_for_warning,durCheck1,durCheck2,durationFix1,durationFix2,durationFix3,durationFix4,eTimeSacc1,eTimeSacc2,eTimeSacc3,eTimeSacc4,endX1,endX1Corr,endX1CorrDegrees,endX1CorrMask,endX1CorrMaskDegrees,endX1CorrMaskNorm,endX1CorrNorm,endX1CorrNormToContrast,endX1CorrNormToHandle,endX1Degrees,endX1Norm,endX1NormToContrast,endX1NormToHandle,endX2,endX2Corr,endX2CorrDegrees,endX2CorrMask,endX2CorrMaskDegrees,endX2CorrMaskNorm,endX2CorrNorm,endX2CorrNormToContrast,endX2CorrNormToHandle,endX2Degrees,endX2Norm,endX2NormToContrast,endX2NormToHandle,endX3,endX3Corr,endX3CorrDegrees,endX3CorrMask,endX3CorrMaskDegrees,endX3CorrMaskNorm,endX3CorrNorm,endX3CorrNormToContrast,endX3CorrNormToHandle,endX3Degrees,endX3Norm,endX3NormToContrast,endX3NormToHandle,endX4,endX4Corr,endX4CorrDegrees,endX4CorrMask,endX4CorrMaskDegrees,endX4CorrMaskNorm,endX4CorrNorm,endX4CorrNormToContrast,endX4CorrNormToHandle,endX4Degrees,endX4Norm,endX4NormToContrast,endX4NormToHandle,endXRaw1,endXRaw2,endXRaw3,endXRaw4,endY1,endY1Corr,endY1CorrNorm,endY1Degrees,endY1Norm,endY2,endY2Corr,endY2CorrNorm,endY2Degrees,endY2Norm,endY3,endY3Corr,endY3CorrNorm,endY3Degrees,endY3Norm,endY4,endY4Corr,endY4CorrNorm,endY4Degrees,endY4Norm,endYRaw1,endYRaw2,endYRaw3,endYRaw4,eye_used,file,fixCount,gap,gazeDur,handle_side,jitter_dur,large_fix_col,large_fix_size,latin_square_letter,mask_side,max_dev_fix,max_dev_object,max_samples,min_samples_fix,min_samples_object,n_blink,object,outlier,overall_rep,picture_name,refixProb,rep,response,response_hand,rtFromLanding,rtFromStim,rtFromSuccess,sTimeSacc1,sTimeSacc2,sTimeSacc3,sTimeSacc4,saccCount,saccDur1,saccDur2,saccDur3,saccDur4,saccLandingTime1,saccLandingTime2,saccLandingTime3,saccLandingTime4,saccLat1,saccLat2,saccLat3,saccLat4,scale,scale_item,scaled_height,scaled_width,startX1,startX1Corr,startX1CorrDegrees,startX1CorrMask,startX1CorrMaskDegrees,startX1CorrMaskNorm,startX1CorrNorm,startX1Degrees,startX1Norm,startX2,startX2Corr,startX2CorrDegrees,startX2CorrMask,startX2CorrMaskDegrees,startX2CorrMaskNorm,startX2CorrNorm,startX2Degrees,startX2Norm,startX3,startX3Corr,startX3CorrDegrees,startX3CorrMask,startX3CorrMaskDegrees,startX3CorrMaskNorm,startX3CorrNorm,startX3Degrees,startX3Norm,startX4,startX4Corr,startX4CorrDegrees,startX4CorrMask,startX4CorrMaskDegrees,startX4CorrMaskNorm,startX4CorrNorm,startX4Degrees,startX4Norm,startXRaw1,startXRaw2,startXRaw3,startXRaw4,startY1,startY1Corr,startY1CorrNorm,startY1Degrees,startY1Norm,startY2,startY2Corr,startY2CorrNorm,startY2Degrees,startY2Norm,startY3,startY3Corr,startY3CorrNorm,startY3Degrees,startY3Norm,startY4,startY4Corr,startY4CorrNorm,startY4Degrees,startY4Norm,startYRaw1,startYRaw2,startYRaw3,startYRaw4,stimOnset,subject_parity,symm,timestampFixOnset,timestampResponse,trialId,trial_count,visual_field,xCoG,xCoGMask,xFix1,xFix2,xFix3,xFix4,xStimNormal,yCoG,yCoGMask,yCoGMaskZero,yCoGZero,yFix1,yFix2,yFix3,yFix4,yStimNormal,y_stim,y_stim_degrees,driftCorr,exp,heavySide,half,sacc_dir
968.807416486,1.0,control,0.0,32.0,176.0,garage,no,False,False,incompatible,control, 'correction awayHandle', 'correction awayHandle',7.0,85.0,150.0,552.0,384.0,192.0,1003,,,13982293.0,13982504,,,38.5,17.3741921447,0.526490671053,17.3741921447,0.526490671053,0.0987170008224,0.0987170008224,,-0.0987170008224,1.16666666667,0.21875,,-0.21875,78.1,56.9741921447,1.72649067105,56.9741921447,1.72649067105,0.323717000822,0.323717000822,,-0.323717000822,2.36666666667,0.44375,,-0.44375,,,,,,,,,,,,,,,,,,,,,,,,,,,550.5,590.1,,,-3.4,-5.10183350261,-0.159432296957,-0.10303030303,-0.10625,-7.4,-9.10183350261,-0.284432296957,-0.224242424242,-0.23125,,,,,,,,,,,591.6,587.6,,,undefined,SS06.asc,2.0,zero,1195.0,left,436.390708588,black,32.0,C,control,25.0,50.0,4000.0,50.0,50.0,0.0,wrench,0.0,1.0,asymm_garage_wrench,1.0,1.0,7.0,right,1119.0,1354.0,970.0,13982257.0,13982487,,,2.0,36.0,17,,,235.0,446,,,199.0,429,,,3.0,yes,180.0,240.0,2.4,-18.7258078553,-0.567448722887,-18.7258078553,-0.567448722887,-0.106396635541,-0.106396635541,0.0727272727273,0.0136363636364,37.2,16.0741921447,0.487096731659,16.0741921447,0.487096731659,0.091330637186,0.091330637186,1.12727272727,0.211363636364,,,,,,,,,,,,,,,,,,,514.4,549.2,,,-213.5,-215.201833503,-6.72505729696,-6.4696969697,-6.671875,-0.8,-2.50183350261,-0.0781822969567,-0.0242424242424,-0.025,,,,,,,,,,,381.5,594.2,,,13982058.0,even,asymm,13981497.0,13983412.0,6.0,0.0,lower,21.1258078553,21.1258078553,37.7,68.3,,,512.0,596.701833503,596.701833503,1.70183350261,1.70183350261,206.8,218.6,,,595.0,-211.0,-7.0,True,004A,right__,first,591.6
189.151440967,1.0,control,0.0,27.0,184.333333333,kitchen,no,False,False,incompatible,control, 'correction smaller than 15', 'correction smaller than 15',6.0,85.0,150.0,529.0,500.0,438.0,,,,13995241.0,,,,-4.0,9.45786799428,0.286602060433,9.45786799428,0.286602060433,0.0513085062981,0.0513085062981,,0.0513085062981,-0.121212121212,-0.0216998191682,,-0.0216998191682,,,,,,,,,,,,,,,,,,,,,,,,,,,,,,,,,,,,,,,,508.0,,,,-7.4,-0.107707184946,-0.00398915499799,-0.224242424242,-0.274074074074,,,,,,,,,,,,,,,,612.6,,,,undefined,SS06.asc,1.0,overlap,438.0,right,383.69055352,black,32.0,B,control,25.0,50.0,4000.0,50.0,50.0,0.0,spoon,0.0,1.0,asymm_kitchen_spoon,0.0,1.0,6.0,left,339.0,691.0,191.0,13995202.0,,,,1.0,39.0,,,,352.0,,,,313.0,,,,3.0,yes,180.0,240.0,8.9,22.3578679943,0.677511151342,22.3578679943,0.677511151342,0.121290423115,0.121290423115,0.269696969697,0.0482820976492,,,,,,,,,,,,,,,,,,,,,,,,,,,,520.9,,,,-234.9,-227.607707185,-8.42991508092,-7.11818181818,-8.7,,,,,,,,,,,,,,,,385.1,,,,13994889.0,even,asymm,13994349.0,13995580.0,9.0,3.0,lower,-13.4578679943,-13.4578679943,-2.8,,,,512.0,612.707707185,612.707707185,-7.29229281505,-7.29229281505,234.5,,,,620.0,-236.0,-7.0,True,004A,left__,first,612.6
818.058958955,1.0,control,0.0,43.3333333333,176.333333333,kitchen,no,False,False,incompatible,control, 'correction awayHandle', 'correction awayHandle',6.0,85.0,150.0,506.0,375.0,155.0,891,,,14020437.0,14020611,,,2.1,32.990600737,0.999715173847,32.990600737,0.999715173847,0.187092253707,0.187092253707,,0.187092253707,0.0636363636364,0.0119092627599,,0.0119092627599,-48.7,-17.809399263,-0.539678765547,-17.809399263,-0.539678765547,-0.100998483533,-0.100998483533,,-0.100998483533,-1.47575757576,-0.27618147448,,-0.27618147448,,,,,,,,,,,,,,,,,,,,,,,,,,,514.1,463.3,,,10.5,22.29068819,0.514400496691,0.318181818182,0.242307692308,8.9,20.69068819,0.477477419768,0.269696969697,0.205384615385,,,,,,,,,,,198.5,196.9,,,undefined,SS06.asc,2.0,zero,1046.0,right,355.243263637,black,32.0,B,control,25.0,50.0,4000.0,50.0,50.0,0.0,washingbrush,0.0,1.0,asymm_kitchen_washingbrush,1.0,1.0,6.0,left,970.0,1195.0,820.0,14020400.0,14020594,,,2.0,37.0,17,,,225.0,399,,,188.0,382,,,3.0,yes,180.0,240.0,-2.8,28.090600737,0.851230325362,28.090600737,0.851230325362,0.159303973934,0.159303973934,-0.0848484848485,-0.0158790170132,-6.2,24.690600737,0.748200022332,24.690600737,0.748200022332,0.140022310418,0.140022310418,-0.187878787879,-0.0351606805293,,,,,,,,,,,,,,,,,,,509.2,505.8,,,217.3,229.09068819,5.286708189,6.58484848485,5.01461538462,22.3,34.09068819,0.786708188999,0.675757575758,0.514615384615,,,,,,,,,,,405.3,210.3,,,14020212.0,even,asymm,14019702.0,14021407.0,15.0,9.0,upper,-30.890600737,-30.890600737,-5.6,-57.6,,,512.0,176.20931181,176.20931181,-11.79068819,-11.79068819,-176.4,-176.8,,,188.0,196.0,5.0,True,004A,left__,first,582.5
730.826896038,1.0,control,0.0,21.3333333333,176.333333333,kitchen,no,False,False,incompatible,control, 'correction smaller than 15', 'correction smaller than 15',6.0,85.0,150.0,558.0,407.0,188.0,225,545,,14080332.0,14080536,14080773,,19.2,17.3847589548,0.526810877419,17.3847589548,0.526810877419,0.0985903154338,0.0985903154338,,0.0985903154338,0.581818181818,0.108884688091,,0.108884688091,39.2,37.3847589548,1.13287148348,37.3847589548,1.13287148348,0.212011865528,0.212011865528,,0.212011865528,1.18787878788,0.222306238185,,0.222306238185,59.6,57.7847589548,1.75105330166,57.7847589548,1.75105330166,0.327701846625,0.327701846625,,0.327701846625,1.80606060606,0.337996219282,,0.337996219282,,,,,,,,,,,,,,531.2,551.2,571.6,,-10.4,-2.57510373428,-0.120707987544,-0.315151515152,-0.4875,31.1,38.9248962657,1.82460451246,0.942424242424,1.4578125,29.1,36.9248962657,1.73085451246,0.881818181818,1.3640625,,,,,,570.6,612.1,610.1,,undefined,SS06.asc,3.0,zero,958.0,right,438.292764572,black,32.0,B,control,25.0,50.0,4000.0,50.0,50.0,0.0,knife,0.0,1.0,asymm_kitchen_knife,1.0,1.0,6.0,left,886.0,1140.0,733.0,14080301.0,14080522,14080763,,3.0,31.0,14,10,,254.0,458,695,,223.0,444,685,,3.0,yes,180.0,240.0,8.0,6.18475895483,0.187416938025,6.18475895483,0.187416938025,0.0350742473809,0.0350742473809,0.242424242424,0.0453686200378,19.4,17.5847589548,0.53287148348,17.5847589548,0.53287148348,0.0997245309347,0.0997245309347,0.587878787879,0.110018903592,37.2,35.3847589548,1.07226542287,35.3847589548,1.07226542287,0.200669710519,0.200669710519,1.12727272727,0.210964083176,,,,,,,,,,520.0,531.4,549.2,,-194.4,-186.575103734,-8.74570798754,-5.89090909091,-9.1125,0.2,8.02489626572,0.376167012456,0.00606060606061,0.009375,31.6,39.4248962657,1.84804201246,0.957575757576,1.48125,,,,,,386.6,581.2,612.6,,14080078.0,even,asymm,14079518.0,14081218.0,24.0,18.0,lower,1.81524104517,1.81524104517,19.6,37.7,58.2,,512.0,573.175103734,573.175103734,-7.82489626572,-7.82489626572,192.8,228.5,225.5,,581.0,-197.0,-6.0,True,004A,right__,first,570.6
515.180779092,1.0,control,0.0,64.3333333333,165.666666667,garage,no,False,False,compatible,control, 'correction awayHandle', 'correction awayHandle',7.0,85.0,150.0,564.0,458.0,756.0,,,,14154781.0,,,,-26.3,22.9380396484,0.695092110559,22.9380396484,0.695092110559,0.138458991842,0.138458991842,,0.138458991842,-0.79696969697,-0.158752515091,,-0.158752515091,,,,,,,,,,,,,,,,,,,,,,,,,,,,,,,,,,,,,,,,485.7,,,,-16.1,-21.9504250274,-0.341198316488,-0.487878787879,-0.250259067358,,,,,,,,,,,,,,,,559.9,,,,undefined,SS06.asc,1.0,overlap,756.0,right,455.386825088,black,32.0,B,control,25.0,50.0,4000.0,50.0,50.0,0.0,hammer,0.0,2.0,asymm_garage_hammer,0.0,2.0,7.0,right,660.0,975.0,517.0,14154748.0,,,,1.0,33.0,,,,315.0,,,,282.0,,,,3.0,yes,180.0,240.0,-4.0,45.2380396484,1.37084968632,45.2380396484,1.37084968632,0.273066637717,0.273066637717,-0.121212121212,-0.0241448692153,,,,,,,,,,,,,,,,,,,,,,,,,,,,508.0,,,,-189.1,-194.950425027,-3.03031748747,-5.7303030303,-2.93937823834,,,,,,,,,,,,,,,,386.9,,,,14154466.0,even,asymm,14153896.0,14155441.0,32.0,26.0,lower,-49.2380396484,-49.2380396484,-27.0,,,,512.0,581.850425027,581.850425027,5.8504250274,5.8504250274,177.7,,,,576.0,-192.0,-6.0,True,004A,left__,first,559.9
549.922821633,1.0,control,0.0,24.0,176.0,garage,no,False,False,compatible,control, 'correction towardsHandle', 'correction towardsHandle',7.0,85.0,150.0,497.0,516.0,243.0,547,,,14167639.0,14167895,,,31.3,6.72356441818,0.203744376308,6.72356441818,0.203744376308,0.0382020705578,0.0382020705578,,0.0382020705578,0.948484848485,0.177840909091,,0.177840909091,20.1,-4.47643558182,-0.135649563086,-4.47643558182,-0.135649563086,-0.0254342930785,-0.0254342930785,,-0.0254342930785,0.609090909091,0.114204545455,,0.114204545455,,,,,,,,,,,,,,,,,,,,,,,,,,,543.3,532.1,,,-15.9,-12.8027401217,-0.533447505069,-0.481818181818,-0.6625,-37.8,-34.7027401217,-1.44594750507,-1.14545454545,-1.575,,,,,,,,,,,171.1,149.2,,,undefined,SS06.asc,2.0,overlap,790.0,right,345.609714841,black,32.0,B,control,25.0,50.0,4000.0,50.0,50.0,0.0,chisel,0.0,2.0,asymm_garage_chisel,1.0,2.0,7.0,right,707.0,1068.0,552.0,14167587.0,14167884,,,2.0,52.0,11,,,361.0,617,,,309.0,606,,,3.0,yes,180.0,240.0,-16.8,-41.3764355818,-1.25383138127,-41.3764355818,-1.25383138127,-0.235093383988,-0.235093383988,-0.509090909091,-0.0954545454545,33.6,9.02356441818,0.273441346005,9.02356441818,0.273441346005,0.051270252376,0.051270252376,1.01818181818,0.190909090909,,,,,,,,,,,,,,,,,,,495.2,545.6,,,208.2,211.297259878,8.80405249493,6.30909090909,8.675,-19.7,-16.6027401217,-0.691780838402,-0.59696969697,-0.820833333333,,,,,,,,,,,395.2,167.3,,,14167278.0,even,asymm,14166778.0,14168346.0,35.0,29.0,upper,24.5764355818,24.5764355818,33.5,20.3,,,512.0,183.902740122,183.902740122,-3.09725987834,-3.09725987834,-217.4,-229.4,,,187.0,197.0,5.0,True,004A,right__,first,555.1
603.901116533,1.0,control,0.0,43.3333333333,176.333333333,kitchen,no,False,False,compatible,control, 'correction awayHandle', 'correction awayHandle',6.0,85.0,150.0,594.0,405.0,152.0,689,,,14177291.0,14177461,,,55.9,25.009399263,0.757860583729,25.009399263,0.757860583729,0.141830241567,0.141830241567,,-0.141830241567,1.69393939394,0.317013232514,,-0.317013232514,84.8,53.909399263,1.63361815949,53.909399263,1.63361815949,0.305724381454,0.305724381454,,-0.305724381454,2.5696969697,0.480907372401,,-0.480907372401,,,,,,,,,,,,,,,,,,,,,,,,,,,567.9,596.8,,,-23.8,-12.00931181,-0.277137964847,-0.721212121212,-0.549230769231,-40.6,-28.80931181,-0.66483027254,-1.2303030303,-0.936923076923,,,,,,,,,,,155.2,138.4,,,undefined,SS06.asc,2.0,zero,841.0,left,444.775326338,black,32.0,C,control,25.0,50.0,4000.0,50.0,50.0,0.0,washingbrush,0.0,2.0,asymm_kitchen_washingbrush,1.0,2.0,6.0,left,759.0,1011.0,606.0,14177243.0,14177445,,,2.0,48.0,16,,,252.0,422,,,204.0,406,,,3.0,yes,180.0,240.0,2.5,-28.390600737,-0.860321234453,-28.390600737,-0.860321234453,-0.161005297185,-0.161005297185,0.0757575757576,0.0141776937618,56.5,25.609399263,0.77604240191,25.609399263,0.77604240191,0.14523288807,0.14523288807,1.71212121212,0.320415879017,,,,,,,,,,,,,,,,,,,514.5,568.5,,,221.1,232.89068819,5.37440049669,6.7,5.10230769231,-19.1,-7.30931181005,-0.168676426386,-0.578787878788,-0.440769230769,,,,,,,,,,,400.1,159.9,,,14177039.0,even,asymm,14176439.0,14178050.0,37.0,31.0,upper,30.890600737,30.890600737,55.8,74.1,,,512.0,167.20931181,167.20931181,-11.79068819,-11.79068819,-227.9,-231.8,,,179.0,205.0,6.0,True,004A,right__,first,539.2
437.349060533,1.0,control,0.0,66.6666666667,162.666666667,garage,no,False,False,compatible,control, 'correction awayHandle', 'correction awayHandle',7.0,85.0,150.0,521.0,440.0,692.0,,,,14190609.0,,,,-48.1,-11.6474947988,-0.352954387843,-11.6474947988,-0.352954387843,-0.0716034516321,-0.0716034516321,,-0.0716034516321,-1.45757575758,-0.295696721311,,-0.295696721311,,,,,,,,,,,,,,,,,,,,,,,,,,,,,,,,,,,,,,,,463.9,,,,-15.6,-16.016775653,-0.240251634795,-0.472727272727,-0.234,,,,,,,,,,,,,,,,542.4,,,,undefined,SS06.asc,1.0,zero,692.0,right,368.428168768,black,32.0,B,control,25.0,50.0,4000.0,50.0,50.0,0.0,mallet,0.0,2.0,asymm_garage_mallet,0.0,2.0,7.0,right,590.0,879.0,439.0,14190576.0,,,,1.0,33.0,,,,289.0,,,,256.0,,,,3.0,yes,180.0,240.0,-21.1,15.3525052012,0.465227430339,15.3525052012,0.465227430339,0.0943801549252,0.0943801549252,-0.639393939394,-0.129713114754,,,,,,,,,,,,,,,,,,,,,,,,,,,,490.9,,,,-178.8,-179.216775653,-2.6882516348,-5.41818181818,-2.682,,,,,,,,,,,,,,,,379.2,,,,14190320.0,even,asymm,14189790.0,14191199.0,39.0,33.0,lower,-36.4525052012,-36.4525052012,-34.4,,,,512.0,558.416775653,558.416775653,0.416775653024,0.416775653024,167.2,,,,558.0,-174.0,-6.0,True,004A,left__,first,542.4
463.195792513,1.0,control,0.0,21.3333333333,176.333333333,kitchen,no,False,False,compatible,control, 'correction smaller than 15', 'correction smaller than 15',6.0,85.0,150.0,915.0,413.0,239.0,353,67,,14249690.0,14249954,14250331,,-10.7,-8.88475895483,-0.269235119843,-8.88475895483,-0.269235119843,-0.0503861566436,-0.0503861566436,,0.0503861566436,-0.324242424242,-0.0606805293006,,0.0606805293006,47.4,49.2152410452,1.49137094076,49.2152410452,1.49137094076,0.279103446381,0.279103446381,,-0.279103446381,1.43636363636,0.268809073724,,-0.268809073724,12.4,14.2152410452,0.430764880157,14.2152410452,0.430764880157,0.0806157337155,0.0806157337155,,-0.0806157337155,0.375757575758,0.0703213610586,,-0.0703213610586,,,,,,,,,,,,,,501.3,559.4,524.4,,-11.2,-3.37510373428,-0.158207987544,-0.339393939394,-0.525,8.9,16.7248962657,0.783979512456,0.269696969697,0.4171875,-60.8,-52.9751037343,-2.48320798754,-1.84242424242,-2.85,,,,,,585.8,605.9,536.2,,undefined,SS06.asc,3.0,zero,659.0,left,508.431742978,black,32.0,C,control,25.0,50.0,4000.0,50.0,50.0,1.0,knife,0.0,2.0,asymm_kitchen_knife,1.0,2.0,6.0,left,615.0,878.0,465.0,14249655.0,14249931,14250309,,3.0,35.0,23,22,,263.0,527,904,,228.0,504,882,,3.0,yes,180.0,240.0,5.4,7.21524104517,0.218643668036,7.21524104517,0.218643668036,0.0409181911825,0.0409181911825,0.163636363636,0.0306238185255,-4.0,-2.18475895483,-0.066204816813,-2.18475895483,-0.066204816813,-0.012389937362,-0.012389937362,-0.121212121212,-0.0226843100189,42.8,44.6152410452,1.35197700137,44.6152410452,1.35197700137,0.253016489859,0.253016489859,1.29696969697,0.242722117202,,,,,,,,,,517.4,508.0,554.8,,-209.9,-202.075103734,-9.47227048754,-6.36060606061,-9.8390625,-5.8,2.02489626572,0.0949170124556,-0.175757575758,-0.271875,10.3,18.1248962657,0.849604512456,0.312121212121,0.4828125,,,,,,387.1,591.2,607.3,,14249427.0,even,asymm,14248507.0,14250305.0,46.0,40.0,lower,-1.81524104517,-1.81524104517,-4.5,42.9,11.6,,512.0,589.175103734,589.175103734,-7.82489626572,-7.82489626572,202.7,220.9,159.1,,597.0,-213.0,-7.0,True,004A,left__,first,585.8
928.976085894,1.0,control,0.0,42.6666666667,176.0,kitchen,no,False,False,incompatible,control, 'correction smaller than 15', 'correction smaller than 15',6.0,85.0,150.0,555.0,383.0,121.0,367,648,,14258835.0,14258973,14259360,,-18.7,-6.67373699361,-0.202234454352,-6.67373699361,-0.202234454352,-0.0379189601909,-0.0379189601909,,-0.0379189601909,-0.566666666667,-0.10625,,-0.10625,-18.7,-6.67373699361,-0.202234454352,-6.67373699361,-0.202234454352,-0.0379189601909,-0.0379189601909,,-0.0379189601909,-0.566666666667,-0.10625,,-0.10625,-43.5,-31.4737369936,-0.953749605867,-31.4737369936,-0.953749605867,-0.1788280511,-0.1788280511,,-0.1788280511,-1.31818181818,-0.247159090909,,-0.247159090909,,,,,,,,,,,,,,493.3,493.3,468.5,,-26.7,-29.1647558943,-0.683548966273,-0.809090909091,-0.62578125,3.7,1.23524410567,0.0289510337266,0.112121212121,0.08671875,14.1,11.6352441057,0.272701033727,0.427272727273,0.33046875,,,,,,580.3,610.7,621.1,,undefined,SS06.asc,3.0,zero,1136.0,right,450.66291366,black,32.0,B,control,25.0,50.0,4000.0,50.0,50.0,0.0,spoon2,0.0,3.0,asymm_kitchen_spoon2,1.0,3.0,6.0,left,1076.0,1313.0,930.0,14258799.0,14258958,14259342,,3.0,36.0,15,18,,237.0,375,762,,201.0,360,744,,3.0,yes,180.0,240.0,-1.6,10.4262630064,0.31594736383,10.4262630064,0.31594736383,0.0592401307182,0.0592401307182,-0.0484848484848,-0.00909090909091,-19.2,-7.17373699361,-0.217385969503,-7.17373699361,-0.217385969503,-0.0407598692818,-0.0407598692818,-0.581818181818,-0.109090909091,-18.5,-6.47373699361,-0.196173848291,-6.47373699361,-0.196173848291,-0.0367825965546,-0.0367825965546,-0.560606060606,-0.105113636364,,,,,,,,,,510.4,492.8,493.5,,-229.7,-232.164755894,-5.44136146627,-6.96060606061,-5.38359375,-31.4,-33.8647558943,-0.793705216273,-0.951515151515,-0.7359375,9.8,7.33524410567,0.171919783727,0.29696969697,0.2296875,,,,,,377.3,575.6,616.8,,14258598.0,even,asymm,14258037.0,14259911.0,48.0,42.0,lower,-12.0262630064,-12.0262630064,-20.6,-16.7,-44.1,,512.0,609.464755894,609.464755894,2.46475589433,2.46475589433,185.6,228.5,238.3,,607.0,-223.0,-7.0,True,004A,left__,first,580.3
479.459973985,1.0,control,0.0,64.3333333333,165.666666667,garage,no,False,False,incompatible,control, 'correction awayHandle', 'correction awayHandle',7.0,85.0,150.0,502.0,447.0,726.0,,,,14263693.0,,,,35.5,-13.7380396484,-0.416304231771,-13.7380396484,-0.416304231771,-0.0829257926465,-0.0829257926465,,0.0829257926465,1.07575757576,0.214285714286,,-0.214285714286,,,,,,,,,,,,,,,,,,,,,,,,,,,,,,,,,,,,,,,,547.5,,,,-17.3,-23.1504250274,-0.359851166229,-0.524242424242,-0.268911917098,,,,,,,,,,,,,,,,563.7,,,,undefined,SS06.asc,1.0,zero,726.0,left,353.736367266,black,32.0,C,control,25.0,50.0,4000.0,50.0,50.0,0.0,hammer,0.0,3.0,asymm_garage_hammer,0.0,3.0,7.0,right,633.0,928.0,481.0,14263658.0,,,,1.0,35.0,,,,295.0,,,,260.0,,,,3.0,yes,180.0,240.0,8.6,-40.6380396484,-1.23145574692,-40.6380396484,-1.23145574692,-0.245300038119,-0.245300038119,0.260606060606,0.0519114688129,,,,,,,,,,,,,,,,,,,,,,,,,,,,520.6,,,,-181.9,-187.750425027,-2.91840038903,-5.51212121212,-2.8274611399,,,,,,,,,,,,,,,,399.1,,,,14263398.0,even,asymm,14262888.0,14264326.0,49.0,43.0,lower,49.2380396484,49.2380396484,36.2,,,,512.0,586.850425027,586.850425027,5.8504250274,5.8504250274,193.1,,,,581.0,-197.0,-6.0,True,004A,right__,first,563.7
420.866781453,1.0,control,0.0,24.0,176.0,garage,no,False,False,incompatible,control, 'correction towardsHandle', 'correction towardsHandle',7.0,85.0,150.0,540.0,515.0,654.0,,,,14306819.0,,,,-12.8,11.7764355818,0.356861684298,11.7764355818,0.356861684298,0.0669115658058,0.0669115658058,,-0.0669115658058,-0.387878787879,-0.0727272727273,,0.0727272727273,,,,,,,,,,,,,,,,,,,,,,,,,,,,,,,,,,,,,,,,499.2,,,,-18.1,-15.0027401217,-0.625114171736,-0.548484848485,-0.754166666667,,,,,,,,,,,,,,,,543.9,,,,undefined,SS06.asc,1.0,overlap,654.0,left,407.82856932,black,32.0,C,control,25.0,50.0,4000.0,50.0,50.0,0.0,chisel,0.0,3.0,asymm_garage_chisel,0.0,3.0,7.0,right,562.0,938.0,423.0,14306788.0,,,,1.0,31.0,,,,376.0,,,,345.0,,,,3.0,yes,180.0,240.0,0.6,25.1764355818,0.762922290358,25.1764355818,0.762922290358,0.143047929442,0.143047929442,0.0181818181818,0.00340909090909,,,,,,,,,,,,,,,,,,,,,,,,,,,,512.6,,,,-176.7,-173.602740122,-7.23344750507,-5.35454545455,-7.3625,,,,,,,,,,,,,,,,385.3,,,,14306443.0,even,asymm,14305893.0,14307381.0,57.0,51.0,lower,-24.5764355818,-24.5764355818,-15.7,,,,512.0,558.902740122,558.902740122,-3.09725987834,-3.09725987834,159.5,,,,562.0,-178.0,-6.0,True,004A,left__,first,543.9
644.189950451,1.0,control,0.0,22.0,144.666666667,kitchen,no,False,False,incompatible,control, 'correction smaller than 15', 'correction smaller than 15',6.0,85.0,150.0,484.0,493.0,887.0,,,,14310666.0,,,,-28.8,-28.0358972519,-0.849572643997,-28.0358972519,-0.849572643997,-0.193796524783,-0.193796524783,,-0.193796524783,-0.872727272727,-0.199078341014,,-0.199078341014,,,,,,,,,,,,,,,,,,,,,,,,,,,,,,,,,,,,,,,,483.2,,,,-26.7,-20.5064931194,-0.932113323611,-0.809090909091,-1.21363636364,,,,,,,,,,,,,,,,541.3,,,,undefined,SS06.asc,1.0,overlap,887.0,right,335.402920665,black,32.0,B,control,25.0,50.0,4000.0,50.0,50.0,0.0,peeler,0.0,4.0,asymm_kitchen_peeler,0.0,4.0,6.0,left,796.0,1139.0,646.0,14310636.0,,,,1.0,30.0,,,,343.0,,,,313.0,,,,3.0,yes,180.0,240.0,-8.0,-7.23589725192,-0.219269613694,-7.23589725192,-0.219269613694,-0.0500177229395,-0.0500177229395,-0.242424242424,-0.0552995391705,,,,,,,,,,,,,,,,,,,,,,,,,,,,504.0,,,,-186.6,-180.406493119,-8.20029514179,-5.65454545455,-8.48181818182,,,,,,,,,,,,,,,,381.4,,,,14310323.0,even,asymm,14309833.0,14311462.0,58.0,52.0,lower,-0.764102748085,-0.764102748085,-18.0,,,,512.0,561.806493119,561.806493119,-6.19350688056,-6.19350688056,162.3,,,,568.0,-184.0,-6.0,True,004A,left__,first,541.3
0.99490079016,1.0,control,0.0,66.6666666667,162.666666667,garage,no,False,False,incompatible,control, 'correction awayHandle', 'correction awayHandle',7.0,85.0,150.0,484.0,938.0,174.0,251,229,,14326574.0,14326766,14327036,,76.9,40.4474947988,1.22568166057,40.4474947988,1.22568166057,0.24865263196,0.24865263196,,-0.24865263196,2.3303030303,0.472745901639,,-0.472745901639,84.9,48.4474947988,1.46810590299,48.4474947988,1.46810590299,0.297832959829,0.297832959829,,-0.297832959829,2.57272727273,0.521926229508,,-0.521926229508,114.9,78.4474947988,2.37719681209,78.4474947988,2.37719681209,0.482259189337,0.482259189337,,-0.482259189337,3.48181818182,0.706352459016,,-0.706352459016,,,,,,,,,,,,,,588.9,596.9,626.9,,-52.9,-53.316775653,-0.799751634795,-1.60303030303,-0.7935,-79.2,-79.616775653,-1.1942516348,-2.4,-1.188,-55.0,-55.416775653,-0.831251634795,-1.66666666667,-0.825,,,,,,113.1,86.8,111.0,,undefined,SS06.asc,3.0,overlap,654.0,left,333.245967595,black,32.0,C,control,25.0,50.0,4000.0,50.0,50.0,0.0,mallet,0.0,3.0,asymm_garage_mallet,1.0,3.0,7.0,right,592.0,941.0,3.0,14326521.0,14326750,14327019,,3.0,53.0,16,17,,349.0,541,811,,296.0,525,794,,3.0,yes,180.0,240.0,2.8,-33.6525052012,-1.01977288488,-33.6525052012,-1.01977288488,-0.206880154925,-0.206880154925,0.0848484848485,0.0172131147541,71.8,35.3474947988,1.07113620603,35.3474947988,1.07113620603,0.217300172944,0.217300172944,2.17575757576,0.441393442623,82.1,45.6474947988,1.38325741815,45.6474947988,1.38325741815,0.280619845075,0.280619845075,2.48787878788,0.504713114754,,,,,,,,,,514.8,583.8,594.1,,217.6,217.183224347,3.2577483652,6.59393939394,3.264,-46.7,-47.116775653,-0.706751634795,-1.41515151515,-0.7005,-54.5,-54.916775653,-0.823751634795,-1.65151515152,-0.8175,,,,,,383.6,119.3,111.5,,14326225.0,even,asymm,14325735.0,14327166.0,61.0,55.0,upper,36.4525052012,36.4525052012,76.3,81.6,91.7,,512.0,166.416775653,166.416775653,0.416775653024,0.416775653024,-276.0,-286.6,-212.9,,166.0,218.0,6.0,True,004A,right__,first,497.1
1.98600311275,1.0,control,0.0,42.6666666667,176.0,kitchen,no,False,False,compatible,control, 'correction smaller than 15', 'correction smaller than 15',6.0,85.0,150.0,543.0,953.0,185.0,604,,,14365456.0,14365666,,,45.5,33.4737369936,1.01435566647,33.4737369936,1.01435566647,0.190191687464,0.190191687464,,-0.190191687464,1.37878787879,0.258522727273,,-0.258522727273,93.0,80.9737369936,2.45374960587,80.9737369936,2.45374960587,0.4600780511,0.4600780511,,-0.4600780511,2.81818181818,0.528409090909,,-0.528409090909,,,,,,,,,,,,,,,,,,,,,,,,,,,557.5,605.0,,,-41.7,-44.1647558943,-1.03511146627,-1.26363636364,-0.97734375,-75.7,-78.1647558943,-1.83198646627,-2.29393939394,-1.77421875,,,,,,,,,,,157.3,123.3,,,undefined,SS06.asc,2.0,zero,789.0,left,405.611804533,black,32.0,C,control,25.0,50.0,4000.0,50.0,50.0,0.0,spoon2,0.0,4.0,asymm_kitchen_spoon2,1.0,4.0,6.0,left,719.0,956.0,3.0,14365407.0,14365643,,,2.0,49.0,23,,,237.0,447,,,188.0,424,,,3.0,yes,180.0,240.0,-12.6,-24.6262630064,-0.746250394133,-24.6262630064,-0.746250394133,-0.1399219489,-0.1399219489,-0.381818181818,-0.0715909090909,42.6,30.5737369936,0.926476878594,30.5737369936,0.926476878594,0.173714414736,0.173714414736,1.29090909091,0.242045454545,,,,,,,,,,,,,,,,,,,499.4,554.6,,,204.8,202.335244106,4.74223228373,6.20606060606,4.8,-68.9,-71.3647558943,-1.67261146627,-2.08787878788,-1.61484375,,,,,,,,,,,403.8,130.1,,,14365219.0,even,asymm,14364669.0,14366175.0,68.0,62.0,upper,12.0262630064,12.0262630064,45.1,81.6,,,512.0,201.464755894,201.464755894,2.46475589433,2.46475589433,-238.1,-226.8,,,199.0,185.0,5.0,True,004A,right__,first,541.3
1007.81703295,1.0,control,0.0,32.3333333333,176.333333333,garage,no,False,False,incompatible,control, 'correction awayHandle', 'correction awayHandle',7.0,85.0,150.0,493.0,388.0,339.0,510,363,,14433354.0,14433713,14434234,,37.3,4.09540122253,0.12410306735,4.09540122253,0.12410306735,0.0232253377459,0.0232253377459,,-0.0232253377459,1.1303030303,0.211531190926,,-0.211531190926,54.4,21.1954012225,0.642284885531,21.1954012225,0.642284885531,0.120200763077,0.120200763077,,-0.120200763077,1.64848484848,0.308506616257,,-0.308506616257,37.3,4.09540122253,0.12410306735,4.09540122253,0.12410306735,0.0232253377459,0.0232253377459,,-0.0232253377459,1.1303030303,0.211531190926,,-0.211531190926,,,,,,,,,,,,,,549.3,566.4,549.3,,11.3,11.1270190351,0.344134609333,0.342424242424,0.349484536082,16.6,16.4270190351,0.508052135106,0.50303030303,0.513402061856,13.3,13.1270190351,0.405990279436,0.40303030303,0.411340206186,,,,,,586.3,591.6,588.3,,undefined,SS06.asc,3.0,zero,1212.0,left,347.689455837,black,32.0,C,control,25.0,50.0,4000.0,50.0,50.0,0.0,paintbrush,0.0,5.0,asymm_garage_paintbrush,1.0,5.0,7.0,right,1151.0,1398.0,1010.0,14433319.0,14433695,14434225,,3.0,35.0,18,9,,247.0,606,1127,,212.0,588,1118,,3.0,yes,180.0,240.0,2.2,-31.0045987775,-0.939533296287,-31.0045987775,-0.939533296287,-0.17582948267,-0.17582948267,0.0666666666667,0.0124763705104,33.2,-0.00459877746601,-0.00013935689291,-0.00459877746601,-0.00013935689291,-2.60800234368e-05,-2.60800234368e-05,1.00606060606,0.188279773157,53.0,19.7954012225,0.599860643107,19.7954012225,0.599860643107,0.11226125457,0.11226125457,1.60606060606,0.30056710775,,,,,,,,,,514.2,545.2,565.0,,-192.1,-192.272980965,-5.94658704015,-5.82121212121,-5.9412371134,7.2,7.02701903509,0.217330485621,0.218181818182,0.222680412371,19.7,19.5270190351,0.603928423766,0.59696969697,0.609278350515,,,,,,382.9,582.2,594.7,,14433107.0,even,asymm,14432607.0,14434505.0,79.0,73.0,lower,33.2045987775,33.2045987775,34.5,53.8,44.6,,512.0,575.172980965,575.172980965,0.172980964907,0.172980964907,194.5,206.1,210.2,,575.0,-191.0,-6.0,True,004A,right__,first,586.3
986.905758603,1.0,control,0.0,22.0,144.666666667,kitchen,no,False,False,compatible,control, 'correction smaller than 15', 'correction smaller than 15',6.0,85.0,150.0,600.0,338.0,230.0,966,,,14438782.0,14439031,,,35.8,35.0358972519,1.06169385612,35.0358972519,1.06169385612,0.242183621557,0.242183621557,,-0.242183621557,1.08484848485,0.247465437788,,-0.247465437788,57.4,56.6358972519,1.71623931066,56.6358972519,1.71623931066,0.391492377317,0.391492377317,,-0.391492377317,1.73939393939,0.396774193548,,-0.396774193548,,,,,,,,,,,,,,,,,,,,,,,,,,,547.8,569.4,,,-40.2,-34.0064931194,-1.54574968725,-1.21818181818,-1.82727272727,-40.7,-34.5064931194,-1.56847695997,-1.23333333333,-1.85,,,,,,,,,,,162.8,162.3,,,undefined,SS06.asc,2.0,zero,1196.0,left,451.158068505,black,32.0,C,control,25.0,50.0,4000.0,50.0,50.0,0.0,peeler,0.0,5.0,asymm_kitchen_peeler,1.0,5.0,6.0,left,1122.0,1327.0,989.0,14438738.0,14439014,,,2.0,44.0,17,,,205.0,454,,,161.0,437,,,3.0,yes,180.0,240.0,-7.2,-7.96410274808,-0.241336446912,-7.96410274808,-0.241336446912,-0.0550514014845,-0.0550514014845,-0.218181818182,-0.0497695852535,18.6,17.8358972519,0.540481734907,17.8358972519,0.540481734907,0.12328961234,0.12328961234,0.563636363636,0.128571428571,,,,,,,,,,,,,,,,,,,504.8,530.6,,,189.5,195.693506881,8.89515940366,5.74242424242,8.61363636364,-27.6,-21.4064931194,-0.97302241452,-0.836363636364,-1.25454545455,,,,,,,,,,,392.5,175.4,,,14438577.0,even,asymm,14437967.0,14439904.0,80.0,74.0,upper,0.764102748085,0.764102748085,22.5,49.7,,,512.0,196.806493119,196.806493119,-6.19350688056,-6.19350688056,-216.9,-209.8,,,203.0,181.0,5.0,True,004A,right__,first,546.8
1559.86133638,1.0,control,0.0,27.0,176.333333333,garage,no,False,False,compatible,control, 'correction towardsHandle', 'correction towardsHandle',7.0,85.0,150.0,801.0,529.0,657.0,1139,,,14468111.0,14468782,,,62.4,8.58612958637,0.260185745042,8.58612958637,0.260185745042,0.0486926063499,0.0486926063499,,0.0486926063499,1.89090909091,0.353875236295,,0.353875236295,32.2,-21.6138704136,-0.65496577011,-21.6138704136,-0.65496577011,-0.122573934293,-0.122573934293,,-0.122573934293,0.975757575758,0.182608695652,,0.182608695652,,,,,,,,,,,,,,,,,,,,,,,,,,,574.4,544.2,,,-23.1,-17.6782010861,-0.654748188375,-0.7,-0.855555555556,-28.4,-22.9782010861,-0.851044484671,-0.860606060606,-1.05185185185,,,,,,,,,,,183.9,178.6,,,undefined,SS06.asc,2.0,overlap,1796.0,right,327.788596532,black,32.0,B,control,25.0,50.0,4000.0,50.0,50.0,1.0,screwdriver,0.0,5.0,asymm_garage_screwdriver,1.0,5.0,7.0,right,1711.0,2091.0,1562.0,14468063.0,14468770,,,2.0,48.0,12,,,380.0,1051,,,332.0,1039,,,3.0,yes,180.0,240.0,-4.8,-58.6138704136,-1.77617789132,-58.6138704136,-1.77617789132,-0.332403801968,-0.332403801968,-0.145454545455,-0.0272211720227,46.2,-7.61387041363,-0.230723345868,-7.61387041363,-0.230723345868,-0.0431788492266,-0.0431788492266,1.4,0.262003780718,,,,,,,,,,,,,,,,,,,507.2,558.2,,,195.9,201.321798914,7.45636292274,5.93636363636,7.25555555556,-5.3,0.121798913884,0.00451107088459,-0.160606060606,-0.196296296296,,,,,,,,,,,402.9,201.7,,,14467731.0,even,asymm,14466921.0,14469822.0,86.0,80.0,upper,53.8138704136,53.8138704136,53.8,34.9,,,512.0,201.578201086,201.578201086,-5.42179891388,-5.42179891388,-187.3,-190.1,,,207.0,177.0,5.0,True,004A,right__,first,567.9
1162.30109247,1.0,control,0.0,29.3333333333,173.333333333,garage,no,False,False,compatible,control, 'correction smaller than 15', 'correction smaller than 15',7.0,85.0,150.0,634.0,365.0,154.0,273,922,,14502431.0,14502611,14502906,,72.7,71.4942486794,2.16649238422,71.4942486794,2.16649238422,0.412466819304,0.412466819304,,0.412466819304,2.20303030303,0.419423076923,,0.419423076923,56.7,55.4942486794,1.68164389937,55.4942486794,1.68164389937,0.320159126996,0.320159126996,,0.320159126996,1.71818181818,0.327115384615,,0.327115384615,39.2,37.9942486794,1.15134086907,37.9942486794,1.15134086907,0.219197588535,0.219197588535,,0.219197588535,1.18787878788,0.226153846154,,0.226153846154,,,,,,,,,,,,,,584.7,568.7,551.2,,-30.1,-28.8147538005,-0.98232115229,-0.912121212121,-1.02613636364,-84.7,-83.4147538005,-2.84368478865,-2.56666666667,-2.8875,-117.8,-116.5147538,-3.97209387956,-3.5696969697,-4.01590909091,,,,,,120.9,66.3,33.2,,undefined,SS06.asc,3.0,zero,1349.0,right,411.292984389,black,32.0,B,control,25.0,50.0,4000.0,50.0,50.0,0.0,chisel2,0.0,5.0,asymm_garage_chisel2,1.0,5.0,7.0,right,1293.0,1530.0,1165.0,14502382.0,14502587,14502886,,3.0,49.0,24,20,,237.0,417,712,,188.0,393,692,,3.0,yes,180.0,240.0,1.4,0.194248679361,0.005886323617,0.194248679361,0.005886323617,0.00112066545785,0.00112066545785,0.0424242424242,0.00807692307692,66.6,65.3942486794,1.98164389937,65.3942486794,1.98164389937,0.377274511612,0.377274511612,2.01818181818,0.384230769231,62.5,61.2942486794,1.85740147513,61.2942486794,1.85740147513,0.353620665458,0.353620665458,1.89393939394,0.360576923077,,,,,,,,,,513.4,578.6,574.5,,242.1,243.3852462,8.29722430226,7.33636363636,8.25340909091,-23.0,-21.7147538005,-0.740275697744,-0.69696969697,-0.784090909091,-116.1,-114.8147538,-3.91413933411,-3.51818181818,-3.95795454545,,,,,,393.1,128.0,34.9,,14502194.0,even,asymm,14501554.0,14503724.0,92.0,86.0,upper,1.20575132064,1.20575132064,68.9,56.1,32.3,,512.0,149.7147538,149.7147538,-1.28524619951,-1.28524619951,-262.2,-322.0,-340.8,,151.0,233.0,6.0,True,004A,right__,first,504.9
835.352588326,1.0,control,0.0,32.3333333333,187.0,kitchen,no,False,False,incompatible,control, 'correction awayHandle', 'correction awayHandle',6.0,85.0,150.0,475.0,368.0,155.0,532,347,,14554659.0,14554839,14555383,,27.7,59.8684136693,1.81419435361,59.8684136693,1.81419435361,0.320151944755,0.320151944755,,0.320151944755,0.839393939394,0.148128342246,,0.148128342246,24.8,56.9684136693,1.72631556573,56.9684136693,1.72631556573,0.304643923365,0.304643923365,,0.304643923365,0.751515151515,0.132620320856,,0.132620320856,27.1,59.2684136693,1.79601253543,59.2684136693,1.79601253543,0.316943388606,0.316943388606,,0.316943388606,0.821212121212,0.144919786096,,0.144919786096,,,,,,,,,,,,,,539.7,536.8,539.1,,23.2,24.2487213951,0.749960455519,0.70303030303,0.717525773196,-27.8,-26.7512786049,-0.827359132109,-0.842424242424,-0.859793814433,-35.8,-34.7512786049,-1.07478181252,-1.08484848485,-1.10721649485,,,,,,229.2,178.2,170.2,,undefined,SS06.asc,3.0,overlap,1034.0,right,325.816285068,black,32.0,B,control,25.0,50.0,4000.0,50.0,50.0,0.0,fork,0.0,5.0,asymm_kitchen_fork,1.0,5.0,6.0,left,976.0,1205.0,837.0,14554610.0,14554816,14555373,,3.0,49.0,23,10,,229.0,409,953,,180.0,386,943,,3.0,yes,180.0,240.0,-1.9,30.2684136693,0.917224656644,30.2684136693,0.917224656644,0.161863174702,0.161863174702,-0.0575757575758,-0.0101604278075,28.2,60.3684136693,1.82934586877,60.3684136693,1.82934586877,0.322825741547,0.322825741547,0.854545454545,0.150802139037,19.3,51.4684136693,1.55964889907,51.4684136693,1.55964889907,0.275232158659,0.275232158659,0.584848484848,0.10320855615,,,,,,,,,,510.1,540.2,531.3,,189.4,190.448721395,5.89016664109,5.73939393939,5.85773195876,18.2,19.2487213951,0.595321280262,0.551515151515,0.562886597938,-15.8,-14.7512786049,-0.456225111491,-0.478787878788,-0.488659793814,,,,,,395.4,224.2,190.2,,14554430.0,even,asymm,14553950.0,14555635.0,97.0,91.0,upper,-32.1684136693,-32.1684136693,26.4,24.8,18.7,,512.0,204.951278605,204.951278605,-1.04872139513,-1.04872139513,-159.8,-203.1,-203.3,,206.0,178.0,5.0,True,004A,left__,first,613.2
210.013332231,1.0,control,1.0,27.0,184.333333333,kitchen,no,False,False,compatible,control, 'correction smaller than 15', 'correction smaller than 15',6.0,85.0,150.0,494.0,569.0,445.0,,,,14735845.0,,,,45.9,32.4421320057,0.983094909264,32.4421320057,0.983094909264,0.175997099489,0.175997099489,,-0.175997099489,1.39090909091,0.249005424955,,-0.249005424955,,,,,,,,,,,,,,,,,,,,,,,,,,,,,,,,,,,,,,,,557.9,,,,-7.3,-0.00770718494584,-0.00028545129429,-0.221212121212,-0.27037037037,,,,,,,,,,,,,,,,594.7,,,,undefined,SS06.asc,1.0,overlap,445.0,left,347.18657113,black,32.0,F,control,25.0,50.0,4000.0,50.0,50.0,0.0,spoon,0.0,7.0,asymm_kitchen_spoon,0.0,1.0,6.0,left,345.0,780.0,211.0,14735796.0,,,,1.0,49.0,,,,435.0,,,,386.0,,,,3.0,yes,180.0,240.0,-0.1,-13.5578679943,-0.410844484675,-13.5578679943,-0.410844484675,-0.0735508209455,-0.0735508209455,-0.0030303030303,-0.000542495479204,,,,,,,,,,,,,,,,,,,,,,,,,,,,511.9,,,,-214.3,-207.007707185,-7.66695211796,-6.49393939394,-7.93703703704,,,,,,,,,,,,,,,,387.7,,,,14735410.0,even,asymm,14734910.0,14736190.0,112.0,106.0,lower,13.4578679943,13.4578679943,44.5,,,,512.0,594.707707185,594.707707185,-7.29229281505,-7.29229281505,231.7,,,,602.0,-218.0,-7.0,True,004A,right__,first,594.7
368.686208374,1.0,control,1.0,43.3333333333,176.333333333,kitchen,no,False,False,compatible,control, 'correction awayHandle', 'correction awayHandle',6.0,85.0,150.0,553.0,372.0,612.0,,,,14739488.0,,,,66.1,35.209399263,1.06695149282,35.209399263,1.06695149282,0.199675232116,0.199675232116,,-0.199675232116,2.00303030303,0.374858223062,,-0.374858223062,,,,,,,,,,,,,,,,,,,,,,,,,,,,,,,,,,,,,,,,578.1,,,,-3.8,7.99068818995,0.184400496691,-0.115151515152,-0.0876923076923,,,,,,,,,,,,,,,,210.2,,,,undefined,SS06.asc,1.0,zero,612.0,left,443.497972839,black,32.0,F,control,25.0,50.0,4000.0,50.0,50.0,0.0,washingbrush,0.0,6.0,asymm_kitchen_washingbrush,0.0,1.0,6.0,left,514.0,742.0,370.0,14739451.0,,,,1.0,37.0,,,,228.0,,,,191.0,,,,3.0,yes,180.0,240.0,4.6,-26.290600737,-0.796684870817,-26.290600737,-0.796684870817,-0.149096034425,-0.149096034425,0.139393939394,0.0260869565217,,,,,,,,,,,,,,,,,,,,,,,,,,,,516.6,,,,174.1,185.89068819,4.28978511208,5.27575757576,4.01769230769,,,,,,,,,,,,,,,,388.1,,,,14739260.0,even,asymm,14738701.0,14740002.0,113.0,107.0,upper,30.890600737,30.890600737,56.7,,,,512.0,202.20931181,202.20931181,-11.79068819,-11.79068819,-155.5,,,,214.0,170.0,5.0,True,004A,right__,first,594.2
316.158720611,1.0,control,1.0,42.6666666667,176.0,kitchen,no,False,False,incompatible,control, 'correction smaller than 15', 'correction smaller than 15',6.0,85.0,150.0,760.0,471.0,559.0,,,,14749743.0,,,,15.9,27.9262630064,0.846250394133,27.9262630064,0.846250394133,0.1586719489,0.1586719489,,0.1586719489,0.481818181818,0.0903409090909,,0.0903409090909,,,,,,,,,,,,,,,,,,,,,,,,,,,,,,,,,,,,,,,,527.9,,,,14.9,12.4352441057,0.291451033727,0.451515151515,0.34921875,,,,,,,,,,,,,,,,221.9,,,,undefined,SS06.asc,1.0,overlap,559.0,right,418.465885411,black,32.0,E,control,25.0,50.0,4000.0,50.0,50.0,0.0,spoon2,0.0,6.0,asymm_kitchen_spoon2,0.0,1.0,6.0,left,458.0,789.0,318.0,14749705.0,,,,1.0,38.0,,,,331.0,,,,293.0,,,,3.0,yes,180.0,240.0,-11.6,0.426263006395,0.0129170607998,0.426263006395,0.0129170607998,0.00242194889997,0.00242194889997,-0.351515151515,-0.0659090909091,,,,,,,,,,,,,,,,,,,,,,,,,,,,500.4,,,,182.4,179.935244106,4.21723228373,5.52727272727,4.275,,,,,,,,,,,,,,,,389.4,,,,14749412.0,even,asymm,14748642.0,14750201.0,115.0,109.0,upper,-12.0262630064,-12.0262630064,11.0,,,,512.0,209.464755894,209.464755894,2.46475589433,2.46475589433,-145.0,,,,207.0,177.0,5.0,True,004A,left__,first,605.9
388.950028947,1.0,control,1.0,21.3333333333,176.333333333,kitchen,no,False,False,incompatible,control, 'correction smaller than 15', 'correction smaller than 15',6.0,85.0,150.0,541.0,435.0,272.0,343,,,14794078.0,14794373,,,16.2,14.3847589548,0.43590178651,14.3847589548,0.43590178651,0.0815770829196,0.0815770829196,,0.0815770829196,0.490909090909,0.0918714555766,,0.0918714555766,64.7,62.8847589548,1.90559875621,62.8847589548,1.90559875621,0.356624341899,0.356624341899,,0.356624341899,1.96060606061,0.366918714556,,0.366918714556,,,,,,,,,,,,,,,,,,,,,,,,,,,528.2,576.7,,,14.4,22.2248962657,1.04179201246,0.436363636364,0.675,15.2,23.0248962657,1.07929201246,0.460606060606,0.7125,,,,,,,,,,,624.4,625.2,,,undefined,SS06.asc,2.0,zero,615.0,right,420.852069288,black,32.0,E,control,25.0,50.0,4000.0,50.0,50.0,0.0,knife,0.0,7.0,asymm_kitchen_knife,1.0,2.0,6.0,left,544.0,826.0,391.0,14794039.0,14794352,,,2.0,39.0,21,,,282.0,577,,,243.0,556,,,3.0,yes,180.0,240.0,-0.1,-1.91524104517,-0.0580376074295,-1.91524104517,-0.0580376074295,-0.0108614804074,-0.0108614804074,-0.0030303030303,-0.000567107750473,22.5,20.6847589548,0.626810877419,20.6847589548,0.626810877419,0.117304871199,0.117304871199,0.681818181818,0.127599243856,,,,,,,,,,,,,,,,,,,511.9,534.5,,,-226.0,-218.175103734,-10.2269579875,-6.84848484848,-10.59375,14.7,22.5248962657,1.05585451246,0.445454545455,0.6890625,,,,,,,,,,,384.0,624.7,,,14793796.0,even,asymm,14793246.0,14794622.0,122.0,116.0,lower,1.81524104517,1.81524104517,20.7,54.6,,,512.0,602.175103734,602.175103734,-7.82489626572,-7.82489626572,239.7,242.7,,,610.0,-226.0,-7.0,True,004A,right__,first,624.4
355.078250539,1.0,control,1.0,32.3333333333,187.0,kitchen,no,False,False,compatible,control, 'correction awayHandle', 'correction awayHandle',6.0,85.0,150.0,540.0,454.0,383.0,130,,,14810049.0,14810508,,,50.2,18.0315863307,0.546411706992,18.0315863307,0.546411706992,0.0964255953516,0.0964255953516,,-0.0964255953516,1.52121212121,0.268449197861,,-0.268449197861,80.6,48.4315863307,1.4676238282,48.4315863307,1.4676238282,0.258992440271,0.258992440271,,-0.258992440271,2.44242424242,0.431016042781,,-0.431016042781,,,,,,,,,,,,,,,,,,,,,,,,,,,562.2,592.6,,,29.0,30.0487213951,0.929341898818,0.878787878788,0.896907216495,-19.4,-18.3512786049,-0.567565317676,-0.587878787879,-0.6,,,,,,,,,,,243.0,194.6,,,undefined,SS06.asc,2.0,overlap,513.0,left,391.204880863,black,32.0,F,control,25.0,50.0,4000.0,50.0,50.0,0.0,fork,0.0,7.0,asymm_kitchen_fork,1.0,2.0,6.0,left,490.0,811.0,357.0,14810002.0,14810434,,,2.0,47.0,74,,,321.0,780,,,274.0,706,,,3.0,yes,180.0,240.0,-13.1,-45.2684136693,-1.37177011119,-45.2684136693,-1.37177011119,-0.242077078445,-0.242077078445,-0.39696969697,-0.0700534759358,64.5,32.3315863307,0.979745040326,32.3315863307,0.979745040326,0.172896183587,0.172896183587,1.95454545455,0.344919786096,,,,,,,,,,,,,,,,,,,498.9,576.5,,,194.8,195.848721395,6.05717695036,5.90303030303,6.02474226804,41.9,42.9487213951,1.32831097098,1.2696969697,1.29587628866,,,,,,,,,,,408.8,255.9,,,14809728.0,even,asymm,14809178.0,14810539.0,126.0,120.0,upper,32.1684136693,32.1684136693,51.6,39.3,,,512.0,212.951278605,212.951278605,-1.04872139513,-1.04872139513,-147.3,-166.7,,,214.0,170.0,5.0,True,004A,right__,first,627.0
335.970421275,1.0,control,1.0,29.3333333333,173.333333333,garage,no,False,False,compatible,control, 'correction smaller than 15', 'correction smaller than 15',7.0,85.0,150.0,513.0,412.0,156.0,250,,,14832016.0,14832340,,,-12.4,-13.6057513206,-0.412295494565,-13.6057513206,-0.412295494565,-0.0784947191575,-0.0784947191575,,-0.0784947191575,-0.375757575758,-0.0715384615385,,-0.0715384615385,-15.0,-16.2057513206,-0.491083373353,-16.2057513206,-0.491083373353,-0.0934947191575,-0.0934947191575,,-0.0934947191575,-0.454545454545,-0.0865384615385,,-0.0865384615385,,,,,,,,,,,,,,,,,,,,,,,,,,,499.6,497.0,,,-31.3,-30.0147538005,-1.0232302432,-0.948484848485,-1.06704545455,-22.1,-20.8147538005,-0.709593879562,-0.669696969697,-0.753409090909,,,,,,,,,,,590.7,599.9,,,undefined,SS06.asc,2.0,zero,406.0,right,371.222326518,black,32.0,E,control,25.0,50.0,4000.0,50.0,50.0,1.0,chisel2,0.0,7.0,asymm_garage_chisel2,1.0,2.0,7.0,right,475.0,750.0,338.0,14831970.0,14832174,,,2.0,46.0,166,,,275.0,599,,,229.0,433,,,3.0,yes,180.0,240.0,3.7,2.49424867936,0.075583293314,2.49424867936,0.075583293314,0.0143898962271,0.0143898962271,0.112121212121,0.0213461538462,-23.7,-24.9057513206,-0.754719736989,-24.9057513206,-0.754719736989,-0.14368702685,-0.14368702685,-0.718181818182,-0.136730769231,,,,,,,,,,,,,,,,,,,515.7,488.3,,,-218.9,-217.6147538,-7.41868478865,-6.63333333333,-7.4625,-2.1,-0.814753800494,-0.0277756977441,-0.0636363636364,-0.0715909090909,,,,,,,,,,,403.1,619.9,,,14831741.0,even,asymm,14831221.0,14832491.0,131.0,125.0,lower,1.20575132064,1.20575132064,-18.2,-25.9,,,512.0,620.7147538,620.7147538,-1.28524619951,-1.28524619951,222.6,232.7,,,622.0,-238.0,-7.0,True,004A,right__,first,590.7
2284.18974895,1.0,control,1.0,42.6666666667,176.0,kitchen,no,False,False,compatible,control, 'correction smaller than 15', 'correction smaller than 15',6.0,85.0,150.0,571.0,966.0,1049.0,359,57,176,14837532.0,14838601,14838977,14839195,44.7,32.6737369936,0.99011324223,32.6737369936,0.99011324223,0.185646232918,0.185646232918,,-0.185646232918,1.35454545455,0.253977272727,,-0.253977272727,69.3,57.2737369936,1.73556778769,57.2737369936,1.73556778769,0.325418960191,0.325418960191,,-0.325418960191,2.1,0.39375,,-0.39375,31.2,19.1737369936,0.58102233314,19.1737369936,0.58102233314,0.108941687464,0.108941687464,,-0.108941687464,0.945454545455,0.177272727273,,-0.177272727273,67.7,55.6737369936,1.6870829392,55.6737369936,1.6870829392,0.3163280511,0.3163280511,,-0.3163280511,2.05151515152,0.384659090909,,-0.384659090909,556.7,581.3,543.2,579.7,-33.5,-35.9647558943,-0.842923966273,-1.01515151515,-0.78515625,-39.5,-41.9647558943,-0.983548966273,-1.19696969697,-0.92578125,-48.7,-51.1647558943,-1.19917396627,-1.47575757576,-1.14140625,-31.7,-34.1647558943,-0.800736466273,-0.960606060606,-0.74296875,156.5,150.5,141.3,158.3,undefined,SS06.asc,8.0,zero,2831.0,left,355.005747789,black,32.0,F,control,25.0,50.0,4000.0,50.0,50.0,1.0,spoon2,0.0,7.0,asymm_kitchen_spoon2,1.0,2.0,6.0,left,3011.0,3252.0,2286.0,14837483.0,14838583,14838962,14839036,8.0,49.0,18,15,159,241.0,1310,1686,1904,192.0,1292,1671,1745,3.0,yes,180.0,240.0,-3.0,-15.0262630064,-0.455341303224,-15.0262630064,-0.455341303224,-0.0853764943545,-0.0853764943545,-0.0909090909091,-0.0170454545455,44.1,32.0737369936,0.971931424049,32.0737369936,0.971931424049,0.182237142009,0.182237142009,1.33636363636,0.250568181818,61.9,49.8737369936,1.51132536344,49.8737369936,1.51132536344,0.283373505645,0.283373505645,1.87575757576,0.351704545455,32.2,20.1737369936,0.611325363443,20.1737369936,0.611325363443,0.114623505645,0.114623505645,0.975757575758,0.182954545455,509.0,556.1,573.9,544.2,198.4,195.935244106,4.59223228373,6.01212121212,4.65,-7.6,-10.0647558943,-0.235892716273,-0.230303030303,-0.178125,-34.2,-36.6647558943,-0.859330216273,-1.03636363636,-0.8015625,-39.7,-42.1647558943,-0.988236466273,-1.20303030303,-0.93046875,388.4,182.4,155.8,150.3,14837291.0,even,asymm,14836711.0,14840543.0,132.0,126.0,upper,12.0262630064,12.0262630064,41.9,62.5,36.5,51.7,512.0,192.464755894,192.464755894,2.46475589433,2.46475589433,-219.0,-229.1,-236.7,-238.5,190.0,194.0,5.0,True,004A,right__,first,540.5
574.789777521,1.0,control,1.0,32.3333333333,176.333333333,garage,no,False,False,compatible,control, 'correction awayHandle', 'correction awayHandle',7.0,85.0,150.0,626.0,570.0,592.0,265,,,14868558.0,14869170,,,-30.5,2.70459877747,0.0819575387111,2.70459877747,0.0819575387111,0.0153379892862,0.0153379892862,,0.0153379892862,-0.924242424242,-0.172967863894,,-0.172967863894,14.7,47.9045987775,1.45165450841,47.9045987775,1.45165450841,0.2716706925,0.2716706925,,0.2716706925,0.445454545455,0.0833648393195,,0.0833648393195,,,,,,,,,,,,,,,,,,,,,,,,,,,481.5,526.7,,,-40.9,-41.0729809649,-1.27029838036,-1.23939393939,-1.26494845361,-28.0,-28.1729809649,-0.871329308193,-0.848484848485,-0.865979381443,,,,,,,,,,,540.1,553.0,,,undefined,SS06.asc,2.0,zero,857.0,right,299.163391577,black,32.0,E,control,25.0,50.0,4000.0,50.0,50.0,0.0,paintbrush,0.0,9.0,asymm_garage_paintbrush,1.0,3.0,7.0,right,784.0,1147.0,577.0,14868512.0,14869152,,,2.0,46.0,18,,,363.0,975,,,317.0,957,,,3.0,yes,180.0,240.0,6.5,39.7045987775,1.20316965992,39.7045987775,1.20316965992,0.225167856961,0.225167856961,0.19696969697,0.0368620037807,-33.5,-0.295401222534,-0.008951552198,-0.295401222534,-0.008951552198,-0.00167524322798,-0.00167524322798,-1.01515151515,-0.189981096408,,,,,,,,,,,,,,,,,,,518.5,478.5,,,-209.5,-209.672980965,-6.48473137005,-6.34848484848,-6.4793814433,-23.8,-23.9729809649,-0.741432400977,-0.721212121212,-0.736082474227,,,,,,,,,,,371.5,557.2,,,14868195.0,even,asymm,14867564.0,14869342.0,137.0,131.0,lower,-33.2045987775,-33.2045987775,-33.1,4.1,,,512.0,581.172980965,581.172980965,0.172980964907,0.172980964907,168.9,172.0,,,581.0,-197.0,-6.0,True,004A,left__,first,540.1
678.665170939,1.0,control,1.0,21.3333333333,176.333333333,kitchen,no,False,False,compatible,control, 'correction smaller than 15', 'correction smaller than 15',6.0,85.0,150.0,551.0,401.0,157.0,748,,,14877132.0,14877312,,,3.6,5.41524104517,0.16409821349,5.41524104517,0.16409821349,0.0307102516739,0.0307102516739,,-0.0307102516739,0.109090909091,0.020415879017,,-0.020415879017,42.9,44.7152410452,1.3550073044,44.7152410452,1.3550073044,0.25358359761,0.25358359761,,-0.25358359761,1.3,0.243289224953,,-0.243289224953,,,,,,,,,,,,,,,,,,,,,,,,,,,515.6,554.9,,,7.3,15.1248962657,0.708979512456,0.221212121212,0.3421875,-26.8,-18.9751037343,-0.889457987544,-0.812121212121,-1.25625,,,,,,,,,,,175.3,141.2,,,undefined,SS06.asc,2.0,zero,905.0,left,435.613601812,black,32.0,F,control,25.0,50.0,4000.0,50.0,50.0,0.0,knife,0.0,8.0,asymm_kitchen_knife,1.0,3.0,6.0,left,825.0,1081.0,680.0,14877092.0,14877291,,,2.0,40.0,21,,,256.0,436,,,216.0,415,,,3.0,yes,180.0,240.0,-5.2,-3.38475895483,-0.102568453177,-3.38475895483,-0.102568453177,-0.0191952303676,-0.0191952303676,-0.157575757576,-0.0294896030246,-2.5,-0.684758954827,-0.0207502713584,-0.684758954827,-0.0207502713584,-0.00388332110488,-0.00388332110488,-0.0757575757576,-0.0141776937618,,,,,,,,,,,,,,,,,,,506.8,509.5,,,205.4,213.224896266,9.99491701246,6.22424242424,9.628125,17.1,24.9248962657,1.16835451246,0.518181818182,0.8015625,,,,,,,,,,,373.4,185.1,,,14876876.0,even,asymm,14876316.0,14877957.0,139.0,133.0,upper,-1.81524104517,-1.81524104517,-1.0,34.9,,,512.0,160.175103734,160.175103734,-7.82489626572,-7.82489626572,-197.7,-224.2,,,168.0,216.0,6.0,True,004A,left__,first,559.3
487.800404508,1.0,control,1.0,29.3333333333,173.333333333,garage,no,False,False,incompatible,control, 'correction smaller than 15', 'correction smaller than 15',7.0,85.0,150.0,538.0,373.0,719.0,,,,14941194.0,,,,34.3,35.5057513206,1.0759318582,35.5057513206,1.0759318582,0.204840873004,0.204840873004,,-0.204840873004,1.03939393939,0.197884615385,,-0.197884615385,,,,,,,,,,,,,,,,,,,,,,,,,,,,,,,,,,,,,,,,546.3,,,,-12.7,-11.4147538005,-0.389139334108,-0.384848484848,-0.432954545455,,,,,,,,,,,,,,,,593.3,,,,undefined,SS06.asc,1.0,zero,719.0,left,418.651281293,black,32.0,F,control,25.0,50.0,4000.0,50.0,50.0,0.0,chisel2,0.0,8.0,asymm_garage_chisel2,0.0,3.0,7.0,right,622.0,863.0,490.0,14941145.0,,,,1.0,49.0,,,,241.0,,,,192.0,,,,3.0,yes,180.0,240.0,3.5,4.70575132064,0.142598524868,4.70575132064,0.142598524868,0.0271485653114,0.0271485653114,0.106060606061,0.0201923076923,,,,,,,,,,,,,,,,,,,,,,,,,,,,515.5,,,,-216.2,-214.9147538,-7.32663933411,-6.55151515152,-7.37045454545,,,,,,,,,,,,,,,,389.8,,,,14940953.0,even,asymm,14940413.0,14941816.0,151.0,145.0,lower,-1.20575132064,-1.20575132064,20.7,,,,512.0,604.7147538,604.7147538,-1.28524619951,-1.28524619951,240.4,,,,606.0,-222.0,-7.0,True,004A,left__,first,593.3
462.523021631,1.0,control,1.0,32.3333333333,176.333333333,garage,no,False,False,incompatible,control, 'correction awayHandle', 'correction awayHandle',7.0,85.0,150.0,531.0,485.0,200.0,487,,,14984676.0,14984900,,,20.1,-13.1045987775,-0.397109053863,-13.1045987775,-0.397109053863,-0.0743171953353,-0.0743171953353,,0.0743171953353,0.609090909091,0.113988657845,,-0.113988657845,50.3,17.0954012225,0.518042461289,17.0954012225,0.518042461289,0.0969493453074,0.0969493453074,,-0.0969493453074,1.52424242424,0.285255198488,,-0.285255198488,,,,,,,,,,,,,,,,,,,,,,,,,,,532.1,562.3,,,-8.7,-8.87298096491,-0.274422091698,-0.263636363636,-0.269072164948,-14.8,-14.9729809649,-0.463081885513,-0.448484848485,-0.457731958763,,,,,,,,,,,565.3,559.2,,,undefined,SS06.asc,2.0,overlap,687.0,left,391.595553314,black,32.0,F,control,25.0,50.0,4000.0,50.0,50.0,0.0,paintbrush,0.0,10.0,asymm_garage_paintbrush,1.0,4.0,7.0,right,611.0,950.0,465.0,14984644.0,14984878,,,2.0,32.0,22,,,339.0,563,,,307.0,541,,,3.0,yes,180.0,240.0,3.2,-30.0045987775,-0.909230265984,-30.0045987775,-0.909230265984,-0.170158405165,-0.170158405165,0.0969696969697,0.0181474480151,21.0,-12.2045987775,-0.36983632659,-12.2045987775,-0.36983632659,-0.0692132255811,-0.0692132255811,0.636363636364,0.119092627599,,,,,,,,,,,,,,,,,,,515.2,533.0,,,-187.0,-187.172980965,-5.78885508139,-5.66666666667,-5.78350515464,-16.0,-16.1729809649,-0.500195287574,-0.484848484848,-0.494845360825,,,,,,,,,,,387.0,558.0,,,14984337.0,even,asymm,14983797.0,14985287.0,159.0,153.0,lower,33.2045987775,33.2045987775,22.1,41.8,,,512.0,574.172980965,574.172980965,0.172980964907,0.172980964907,170.3,182.0,,,574.0,-190.0,-6.0,True,004A,right__,first,565.3
384.725585522,1.0,control,1.0,24.0,181.333333333,kitchen,no,False,False,incompatible,control, 'correction towardsHandle', 'correction towardsHandle',6.0,85.0,150.0,557.0,487.0,226.0,383,,,14989260.0,14989495,,,25.0,3.24654317645,0.0983800962561,3.24654317645,0.0983800962561,0.0179037307525,0.0179037307525,,0.0179037307525,0.757575757576,0.137867647059,,0.137867647059,27.6,5.84654317645,0.177167975044,5.84654317645,0.177167975044,0.0322419660466,0.0322419660466,,0.0322419660466,0.836363636364,0.152205882353,,0.152205882353,,,,,,,,,,,,,,,,,,,,,,,,,,,537.0,539.6,,,-23.9,-16.4597742043,-0.685823925178,-0.724242424242,-0.995833333333,19.3,26.7402257957,1.11417607482,0.584848484848,0.804166666667,,,,,,,,,,,588.1,631.3,,,undefined,SS06.asc,2.0,overlap,609.0,right,446.908802913,black,32.0,E,control,25.0,50.0,4000.0,50.0,50.0,1.0,sharpeningsteel,0.0,9.0,asymm_kitchen_sharpeningsteel,1.0,4.0,6.0,left,521.0,873.0,386.0,14989210.0,14989488,,,2.0,50.0,7,,,352.0,587,,,302.0,580,,,3.0,yes,180.0,240.0,-4.7,-26.4534568235,-0.801619903744,-26.4534568235,-0.801619903744,-0.145883033953,-0.145883033953,-0.142424242424,-0.0259191176471,16.9,-4.85345682355,-0.147074449198,-4.85345682355,-0.147074449198,-0.0267653868946,-0.0267653868946,0.512121212121,0.0931985294118,,,,,,,,,,,,,,,,,,,507.3,528.9,,,-218.0,-210.559774204,-8.77332392518,-6.60606060606,-9.08333333333,9.9,17.3402257957,0.722509408155,0.3,0.4125,,,,,,,,,,,394.0,621.9,,,14988908.0,even,asymm,14988348.0,14989781.0,160.0,154.0,lower,21.7534568235,21.7534568235,20.0,22.1,,,512.0,604.559774204,604.559774204,-7.44022579572,-7.44022579572,224.1,251.7,,,612.0,-228.0,-7.0,True,004A,right__,first,588.1
987.95059586,1.0,control,1.0,27.0,176.333333333,garage,no,False,False,compatible,control, 'correction towardsHandle', 'correction towardsHandle',7.0,85.0,150.0,584.0,353.0,276.0,222,696,,14998455.0,14998741,14998983,,31.2,-22.6138704136,-0.685268800413,-22.6138704136,-0.685268800413,-0.128245011798,-0.128245011798,,-0.128245011798,0.945454545455,0.176937618147,,0.176937618147,31.1,-22.7138704136,-0.688299103443,-22.7138704136,-0.688299103443,-0.128812119548,-0.128812119548,,-0.128812119548,0.942424242424,0.176370510397,,0.176370510397,9.9,-43.9138704136,-1.33072334587,-43.9138704136,-1.33072334587,-0.249038962648,-0.249038962648,,-0.249038962648,0.3,0.0561436672968,,0.0561436672968,,,,,,,,,,,,,,543.2,543.1,521.9,,-26.3,-20.8782010861,-0.773266706893,-0.79696969697,-0.974074074074,-34.8,-29.3782010861,-1.08808152171,-1.05454545455,-1.28888888889,-26.4,-20.9782010861,-0.776970410597,-0.8,-0.977777777778,,,,,,131.7,123.2,131.6,,undefined,SS06.asc,3.0,overlap,1194.0,right,503.005430194,black,32.0,E,control,25.0,50.0,4000.0,50.0,50.0,0.0,screwdriver,0.0,9.0,asymm_garage_screwdriver,1.0,4.0,7.0,right,1127.0,1343.0,990.0,14998410.0,14998733,14998965,,3.0,45.0,8,18,,216.0,502,744,,171.0,494,726,,3.0,yes,180.0,240.0,0.1,-53.7138704136,-1.62769304284,-53.7138704136,-1.62769304284,-0.304615522194,-0.304615522194,0.0030303030303,0.000567107750473,28.8,-25.0138704136,-0.75799607314,-25.0138704136,-0.75799607314,-0.141855597809,-0.141855597809,0.872727272727,0.163327032136,32.8,-21.0138704136,-0.636783951928,-21.0138704136,-0.636783951928,-0.11917128779,-0.11917128779,0.993939393939,0.186011342155,,,,,,,,,,512.1,540.8,544.8,,231.2,236.621798914,8.76377033014,7.00606060606,8.56296296296,-17.3,-11.8782010861,-0.43993337356,-0.524242424242,-0.640740740741,-27.0,-21.5782010861,-0.799192632819,-0.818181818182,-1.0,,,,,,389.2,140.7,131.0,,14998239.0,even,asymm,14997649.0,14999582.0,162.0,156.0,upper,53.8138704136,53.8138704136,29.9,35.7,8.6,,512.0,152.578201086,152.578201086,-5.42179891388,-5.42179891388,-240.0,-254.0,-240.8,,158.0,226.0,6.0,True,004A,right__,first,515.7
517.197010549,1.0,control,1.0,24.0,176.0,garage,no,False,False,compatible,control, 'correction towardsHandle', 'correction towardsHandle',7.0,85.0,150.0,518.0,426.0,172.0,237,321,,15007622.0,15007807,15008059,,25.7,1.12356441818,0.0340474066114,1.12356441818,0.0340474066114,0.00638388873964,0.00638388873964,,0.00638388873964,0.778787878788,0.146022727273,,0.146022727273,-2.3,-26.8764355818,-0.814437441873,-26.8764355818,-0.814437441873,-0.152707020351,-0.152707020351,,-0.152707020351,-0.069696969697,-0.0130681818182,,-0.0130681818182,-1.6,-26.1764355818,-0.793225320661,-26.1764355818,-0.793225320661,-0.148729747624,-0.148729747624,,-0.148729747624,-0.0484848484848,-0.00909090909091,,-0.00909090909091,,,,,,,,,,,,,,537.7,509.7,510.4,,16.3,19.3972598783,0.808219161598,0.493939393939,0.679166666667,7.0,10.0972598783,0.420719161598,0.212121212121,0.291666666667,5.1,8.19725987834,0.341552494931,0.154545454545,0.2125,,,,,,595.3,586.0,584.1,,undefined,SS06.asc,3.0,overlap,730.0,right,369.246580293,black,32.0,E,control,25.0,50.0,4000.0,50.0,50.0,0.0,chisel,0.0,10.0,asymm_garage_chisel,1.0,5.0,7.0,right,663.0,945.0,519.0,15007589.0,15007796,15008046,,3.0,33.0,11,13,,282.0,467,719,,249.0,456,706,,3.0,yes,180.0,240.0,6.6,-17.9764355818,-0.544740472176,-17.9764355818,-0.544740472176,-0.102138838533,-0.102138838533,0.2,0.0375,21.0,-3.57643558182,-0.108376835813,-3.57643558182,-0.108376835813,-0.0203206567149,-0.0203206567149,0.636363636364,0.119318181818,-6.8,-31.3764355818,-0.950801078237,-31.3764355818,-0.950801078237,-0.178275202169,-0.178275202169,-0.206060606061,-0.0386363636364,,,,,,,,,,518.6,533.0,505.2,,-190.8,-187.702740122,-7.82094750507,-5.78181818182,-7.95,12.3,15.3972598783,0.641552494931,0.372727272727,0.5125,19.9,22.9972598783,0.958219161598,0.60303030303,0.829166666667,,,,,,388.2,591.3,598.9,,15007340.0,even,asymm,15006820.0,15008285.0,164.0,158.0,lower,24.5764355818,24.5764355818,26.5,-1.6,-2.0,,512.0,575.902740122,575.902740122,-3.09725987834,-3.09725987834,200.0,210.3,209.0,,579.0,-195.0,-6.0,True,004A,right__,first,595.3
574.498444373,1.0,control,1.0,64.3333333333,165.666666667,garage,no,False,False,compatible,control, 'correction awayHandle', 'correction awayHandle',7.0,85.0,150.0,559.0,448.0,338.0,179,,,15018722.0,15019352,,,-14.9,34.3380396484,1.04054665601,34.3380396484,1.04054665601,0.207271869105,0.207271869105,,0.207271869105,-0.451515151515,-0.089939637827,,-0.089939637827,-4.7,44.5380396484,1.3496375651,44.5380396484,1.3496375651,0.268841285604,0.268841285604,,0.268841285604,-0.142424242424,-0.028370221328,,-0.028370221328,,,,,,,,,,,,,,,,,,,,,,,,,,,497.1,507.3,,,1.5,-4.3504250274,-0.0676231869544,0.0454545454545,0.0233160621762,-48.5,-54.3504250274,-0.844825259493,-1.4696969697,-0.753886010363,,,,,,,,,,,623.5,573.5,,,undefined,SS06.asc,2.0,zero,517.0,right,449.338969122,black,32.0,E,control,25.0,50.0,4000.0,50.0,50.0,1.0,hammer,0.0,10.0,asymm_garage_hammer,1.0,4.0,7.0,right,713.0,1024.0,576.0,15018675.0,15019062,,,2.0,47.0,290,,,311.0,941,,,264.0,651,,,3.0,yes,180.0,240.0,-5.5,43.7380396484,1.32539514086,43.7380396484,1.32539514086,0.264012311761,0.264012311761,-0.166666666667,-0.033199195171,-29.8,19.4380396484,0.589031504498,19.4380396484,0.589031504498,0.117332231278,0.117332231278,-0.90303030303,-0.179879275654,,,,,,,,,,,,,,,,,,,506.5,482.2,,,-214.4,-220.250425027,-3.42358173618,-6.49696969697,-3.33264248705,46.0,40.1495749726,0.624086657605,1.39393939394,0.715025906736,,,,,,,,,,,407.6,668.0,,,15018411.0,even,asymm,15017841.0,15019435.0,166.0,160.0,lower,-49.2380396484,-49.2380396484,-17.4,-13.9,,,512.0,627.850425027,627.850425027,5.8504250274,5.8504250274,257.2,219.0,,,622.0,-238.0,-7.0,True,004A,left__,first,623.5
362.549409403,1.0,control,1.0,22.0,144.666666667,kitchen,no,False,False,incompatible,control, 'correction smaller than 15', 'correction smaller than 15',6.0,85.0,150.0,440.0,461.0,237.0,354,,,15063254.0,15063513,,,23.6,24.3641027481,0.738306143881,24.3641027481,0.738306143881,0.168415456784,0.168415456784,,0.168415456784,0.715151515152,0.163133640553,,0.163133640553,-4.8,-4.03589725192,-0.122299916725,-4.03589725192,-0.122299916725,-0.0278979072713,-0.0278979072713,,-0.0278979072713,-0.145454545455,-0.0331797235023,,-0.0331797235023,,,,,,,,,,,,,,,,,,,,,,,,,,,535.6,507.2,,,-17.6,-11.4064931194,-0.518476959974,-0.533333333333,-0.8,-15.0,-8.80649311944,-0.400295141793,-0.454545454545,-0.681818181818,,,,,,,,,,,147.4,150.0,,,undefined,SS06.asc,2.0,overlap,591.0,right,293.842436033,black,32.0,E,control,25.0,50.0,4000.0,50.0,50.0,0.0,peeler,0.0,11.0,asymm_kitchen_peeler,1.0,5.0,6.0,left,517.0,825.0,364.0,15063203.0,15063493,,,2.0,51.0,20,,,308.0,567,,,257.0,547,,,3.0,yes,180.0,240.0,8.8,9.56410274808,0.289821295397,9.56410274808,0.289821295397,0.0661113093186,0.0661113093186,0.266666666667,0.0608294930876,17.9,18.6641027481,0.565578871154,18.6641027481,0.565578871154,0.129014535125,0.129014535125,0.542424242424,0.123732718894,,,,,,,,,,,,,,,,,,,520.8,529.9,,,216.4,222.593506881,10.1178866764,6.55757575758,9.83636363636,-15.7,-9.50649311944,-0.432113323611,-0.475757575758,-0.713636363636,,,,,,,,,,,381.4,149.3,,,15062946.0,even,asymm,15062496.0,15063771.0,174.0,168.0,upper,-0.764102748085,-0.764102748085,17.6,-5.1,,,512.0,158.806493119,158.806493119,-6.19350688056,-6.19350688056,-241.2,-228.1,,,165.0,219.0,6.0,True,004A,left__,first,531.4
480.044510943,1.0,control,1.0,24.0,176.0,garage,no,False,False,incompatible,control, 'correction towardsHandle', 'correction towardsHandle',7.0,85.0,150.0,754.0,394.0,192.0,230,274,,15100784.0,15100986,15101226,,47.3,71.8764355818,2.17807380551,71.8764355818,2.17807380551,0.408388838533,0.408388838533,,-0.408388838533,1.43333333333,0.26875,,-0.26875,32.1,56.6764355818,1.7174677449,56.6764355818,1.7174677449,0.322025202169,0.322025202169,,-0.322025202169,0.972727272727,0.182386363636,,-0.182386363636,8.4,32.9764355818,0.999285926722,32.9764355818,0.999285926722,0.18736611126,0.18736611126,,-0.18736611126,0.254545454545,0.0477272727273,,-0.0477272727273,,,,,,,,,,,,,,559.3,544.1,520.4,,19.5,22.5972598783,0.941552494931,0.590909090909,0.8125,18.9,21.9972598783,0.916552494931,0.572727272727,0.7875,16.3,19.3972598783,0.808219161598,0.493939393939,0.679166666667,,,,,,208.5,207.9,205.3,,undefined,SS06.asc,3.0,zero,696.0,left,371.407461756,black,32.0,F,control,25.0,50.0,4000.0,50.0,50.0,0.0,chisel,0.0,11.0,asymm_garage_chisel,1.0,6.0,7.0,right,622.0,876.0,482.0,15100748.0,15100978,15101218,,3.0,36.0,8,8,,254.0,456,696,,218.0,448,688,,3.0,yes,180.0,240.0,16.6,41.1764355818,1.24777077521,41.1764355818,1.24777077521,0.233957020351,0.233957020351,0.50303030303,0.0943181818182,42.6,67.1764355818,2.03564956309,67.1764355818,2.03564956309,0.381684293079,0.381684293079,1.29090909091,0.242045454545,24.6,49.1764355818,1.49019501763,49.1764355818,1.49019501763,0.279411565806,0.279411565806,0.745454545455,0.139772727273,,,,,,,,,,528.6,554.6,536.6,,215.5,218.597259878,9.1082191616,6.5303030303,8.97916666667,30.5,33.5972598783,1.39988582826,0.924242424242,1.27083333333,22.1,25.1972598783,1.04988582826,0.669696969697,0.920833333333,,,,,,404.5,219.5,211.1,,15100530.0,even,asymm,15099770.0,15101406.0,179.0,173.0,upper,-24.5764355818,-24.5764355818,43.6,29.3,9.8,,512.0,185.902740122,185.902740122,-3.09725987834,-3.09725987834,-162.5,-176.8,-173.5,,189.0,195.0,5.0,True,004A,left__,first,592.5
461.164078466,1.0,control,1.0,32.0,176.0,garage,no,False,False,compatible,control, 'correction awayHandle', 'correction awayHandle',7.0,85.0,150.0,497.0,344.0,151.0,179,180,,15128205.0,15128380,15128713,,-30.6,-9.47419214474,-0.287096731659,-9.47419214474,-0.287096731659,-0.053830637186,-0.053830637186,,-0.053830637186,-0.927272727273,-0.173863636364,,-0.173863636364,47.2,68.3258078553,2.07047902592,68.3258078553,2.07047902592,0.388214817359,0.388214817359,,0.388214817359,1.4303030303,0.268181818182,,0.268181818182,35.2,56.3258078553,1.70684266228,56.3258078553,1.70684266228,0.320032999178,0.320032999178,,0.320032999178,1.06666666667,0.2,,0.2,,,,,,,,,,,,,,481.4,559.2,547.2,,-16.3,-18.0018335026,-0.562557296957,-0.493939393939,-0.509375,19.8,18.0981664974,0.565567703043,0.6,0.61875,-102.0,-103.701833503,-3.24068229696,-3.09090909091,-3.1875,,,,,,602.7,638.8,517.0,,undefined,SS06.asc,3.0,zero,510.0,right,350.929956823,black,32.0,E,control,25.0,50.0,4000.0,50.0,50.0,1.0,wrench,0.0,11.0,asymm_garage_wrench,1.0,5.0,7.0,right,595.0,807.0,463.0,15128155.0,15128358,15128561,,3.0,50.0,22,152,,212.0,387,720,,162.0,365,568,,3.0,yes,180.0,240.0,10.8,31.9258078553,0.967448722887,31.9258078553,0.967448722887,0.181396635541,0.181396635541,0.327272727273,0.0613636363636,-32.6,-11.4741921447,-0.347702792265,-11.4741921447,-0.347702792265,-0.0651942735496,-0.0651942735496,-0.987878787879,-0.185227272727,21.7,42.8258078553,1.29775175319,42.8258078553,1.29775175319,0.243328453723,0.243328453723,0.657575757576,0.123295454545,,,,,,,,,,522.8,479.4,533.7,,-223.7,-225.401833503,-7.04380729696,-6.77878787879,-6.990625,4.2,2.49816649739,0.0780677030433,0.127272727273,0.13125,40.6,38.8981664974,1.21556770304,1.2303030303,1.26875,,,,,,395.3,623.2,659.6,,15127993.0,even,asymm,15127493.0,15128800.0,185.0,179.0,lower,-21.1258078553,-21.1258078553,-31.8,35.5,26.9,,512.0,620.701833503,620.701833503,1.70183350261,1.70183350261,233.4,260.6,148.4,,619.0,-235.0,-7.0,True,004A,left__,first,602.7
268.456032661,1.0,control,1.0,66.6666666667,162.666666667,garage,no,False,False,compatible,control, 'correction awayHandle', 'correction awayHandle',7.0,85.0,150.0,542.0,477.0,449.0,,,,15133135.0,,,,-18.3,18.1525052012,0.550075915187,18.1525052012,0.550075915187,0.111593269679,0.111593269679,,0.111593269679,-0.554545454545,-0.1125,,-0.1125,,,,,,,,,,,,,,,,,,,,,,,,,,,,,,,,,,,,,,,,493.7,,,,12.7,12.283224347,0.184248365205,0.384848484848,0.1905,,,,,,,,,,,,,,,,567.7,,,,undefined,SS06.asc,1.0,overlap,449.0,right,424.119316289,black,32.0,E,control,25.0,50.0,4000.0,50.0,50.0,1.0,mallet,0.0,11.0,asymm_garage_mallet,0.0,6.0,7.0,right,416.0,747.0,270.0,15133104.0,,,,1.0,31.0,,,,331.0,,,,300.0,,,,3.0,yes,180.0,240.0,-3.4,33.0525052012,1.0015910667,33.0525052012,1.0015910667,0.203191630335,0.203191630335,-0.10303030303,-0.0209016393443,,,,,,,,,,,,,,,,,,,,,,,,,,,,508.6,,,,-156.5,-156.916775653,-2.3537516348,-4.74242424242,-2.3475,,,,,,,,,,,,,,,,398.5,,,,15132804.0,even,asymm,15132254.0,15133551.0,186.0,180.0,lower,-36.4525052012,-36.4525052012,-12.8,,,,512.0,555.416775653,555.416775653,0.416775653024,0.416775653024,178.8,,,,555.0,-171.0,-6.0,True,004A,left__,first,567.7
252.868513771,1.0,control,1.0,64.3333333333,165.666666667,garage,no,False,False,incompatible,control, 'correction awayHandle', 'correction awayHandle',7.0,85.0,150.0,579.0,397.0,485.0,,,,15143690.0,,,,33.6,-15.6380396484,-0.473879989347,-15.6380396484,-0.473879989347,-0.0943946055238,-0.0943946055238,,0.0943946055238,1.01818181818,0.202816901408,,-0.202816901408,,,,,,,,,,,,,,,,,,,,,,,,,,,,,,,,,,,,,,,,545.6,,,,-27.4,-33.2504250274,-0.516845984882,-0.830303030303,-0.425906735751,,,,,,,,,,,,,,,,574.6,,,,undefined,SS06.asc,1.0,overlap,485.0,left,490.635803794,black,32.0,F,control,25.0,50.0,4000.0,50.0,50.0,0.0,hammer,0.0,11.0,asymm_garage_hammer,0.0,5.0,7.0,right,386.0,651.0,254.0,15143640.0,,,,1.0,50.0,,,,265.0,,,,215.0,,,,3.0,yes,180.0,240.0,-9.5,-58.7380396484,-1.77994059541,-58.7380396484,-1.77994059541,-0.354555571319,-0.354555571319,-0.287878787879,-0.0573440643863,,,,,,,,,,,,,,,,,,,,,,,,,,,,502.5,,,,-214.7,-220.550425027,-3.42824494861,-6.50606060606,-3.33730569948,,,,,,,,,,,,,,,,387.3,,,,15143425.0,even,asymm,15142835.0,15144076.0,188.0,182.0,lower,49.2380396484,49.2380396484,27.5,,,,512.0,607.850425027,607.850425027,5.8504250274,5.8504250274,212.9,,,,602.0,-218.0,-7.0,True,004A,right__,first,574.6
576.294142149,1.0,control,1.0,22.0,144.666666667,kitchen,no,False,False,compatible,control, 'correction smaller than 15', 'correction smaller than 15',6.0,85.0,150.0,571.0,577.0,607.0,198,,,15152880.0,15153498,,,40.1,39.3358972519,1.19199688642,39.3358972519,1.19199688642,0.271907123861,0.271907123861,,-0.271907123861,1.21515151515,0.277188940092,,-0.277188940092,-7.9,-8.66410274808,-0.262548568124,-8.66410274808,-0.262548568124,-0.0598901111619,-0.0598901111619,,0.0598901111619,-0.239393939394,-0.0546082949309,,0.0546082949309,,,,,,,,,,,,,,,,,,,,,,,,,,,552.1,504.1,,,-34.8,-28.6064931194,-1.30029514179,-1.05454545455,-1.58181818182,15.2,21.3935068806,0.972432130935,0.460606060606,0.690909090909,,,,,,,,,,,574.2,624.2,,,undefined,SS06.asc,2.0,zero,805.0,left,475.145745097,black,32.0,F,control,25.0,50.0,4000.0,50.0,50.0,1.0,peeler,0.0,12.0,asymm_kitchen_peeler,1.0,6.0,6.0,left,721.0,1155.0,578.0,15152725.0,15153489,,,2.0,155.0,9,,,434.0,1052,,,279.0,1043,,,3.0,yes,180.0,240.0,5.4,4.63589725192,0.140481734907,4.63589725192,0.140481734907,0.0320453727091,0.0320453727091,0.163636363636,0.0373271889401,12.4,11.6358972519,0.352602947028,11.6358972519,0.352602947028,0.0804324694833,0.0804324694833,0.375757575758,0.0857142857143,,,,,,,,,,,,,,,,,,,517.4,524.4,,,-198.9,-192.706493119,-8.75938605088,-6.02727272727,-9.04090909091,21.1,27.2935068806,1.24061394912,0.639393939394,0.959090909091,,,,,,,,,,,410.1,630.1,,,15152446.0,even,asymm,15151866.0,15153601.0,190.0,184.0,lower,0.764102748085,0.764102748085,21.4,-4.1,,,512.0,602.806493119,602.806493119,-6.19350688056,-6.19350688056,227.3,241.7,,,609.0,-225.0,-7.0,True,004A,right__,first,574.2
373.240462854,1.0,control,2.0,42.6666666667,176.0,kitchen,no,False,False,compatible,control, 'correction smaller than 15', 'correction smaller than 15',6.0,85.0,150.0,548.0,745.0,899.0,,,,15365030.0,,,,51.4,39.3737369936,1.19314354526,39.3737369936,1.19314354526,0.223714414736,0.223714414736,,-0.223714414736,1.55757575758,0.292045454545,,-0.292045454545,,,,,,,,,,,,,,,,,,,,,,,,,,,,,,,,,,,,,,,,563.4,,,,-83.0,-85.4647558943,-2.00308021627,-2.51515151515,-1.9453125,,,,,,,,,,,,,,,,100.0,,,,undefined,SS06.asc,1.0,overlap,899.0,left,433.852434631,black,32.0,B,control,25.0,50.0,4000.0,50.0,50.0,0.0,spoon2,0.0,12.0,asymm_kitchen_spoon2,0.0,1.0,6.0,left,799.0,1120.0,375.0,15364988.0,,,,1.0,42.0,,,,321.0,,,,279.0,,,,3.0,yes,180.0,240.0,-7.6,-19.6262630064,-0.594735242618,-19.6262630064,-0.594735242618,-0.111512857991,-0.111512857991,-0.230303030303,-0.0431818181818,,,,,,,,,,,,,,,,,,,,,,,,,,,,504.4,,,,197.6,195.135244106,4.57348228373,5.98787878788,4.63125,,,,,,,,,,,,,,,,380.6,,,,15364709.0,even,asymm,15364159.0,15365829.0,203.0,197.0,upper,12.0262630064,12.0262630064,35.3,,,,512.0,185.464755894,185.464755894,2.46475589433,2.46475589433,-264.0,,,,183.0,201.0,5.0,True,004A,right__,first,484.0
775.085682063,1.0,control,2.0,27.0,176.333333333,garage,no,False,False,compatible,control, 'correction towardsHandle', 'correction towardsHandle',7.0,85.0,150.0,536.0,457.0,208.0,805,,,15376040.0,15376265,,,61.1,7.28612958637,0.220791805648,7.28612958637,0.220791805648,0.0413202055938,0.0413202055938,,0.0413202055938,1.85151515152,0.346502835539,,0.346502835539,31.8,-22.0138704136,-0.667086982231,-22.0138704136,-0.667086982231,-0.124842365295,-0.124842365295,,-0.124842365295,0.963636363636,0.18034026465,,0.18034026465,,,,,,,,,,,,,,,,,,,,,,,,,,,573.1,543.8,,,-57.2,-51.7782010861,-1.91771115134,-1.73333333333,-2.11851851852,-63.3,-57.8782010861,-2.14363707726,-1.91818181818,-2.34444444444,,,,,,,,,,,142.8,136.7,,,undefined,SS06.asc,2.0,overlap,1013.0,right,409.246321487,black,32.0,F,control,25.0,50.0,4000.0,50.0,50.0,0.0,screwdriver,0.0,11.0,asymm_garage_screwdriver,1.0,1.0,7.0,right,934.0,1234.0,777.0,15375988.0,15376250,,,2.0,52.0,15,,,300.0,525,,,248.0,510,,,3.0,yes,180.0,240.0,3.4,-50.4138704136,-1.52769304284,-50.4138704136,-1.52769304284,-0.285900966429,-0.285900966429,0.10303030303,0.0192816635161,61.4,7.58612958637,0.229882714739,7.58612958637,0.229882714739,0.0430215288452,0.0430215288452,1.86060606061,0.34820415879,,,,,,,,,,,,,,,,,,,515.4,573.4,,,172.5,177.921798914,6.58969625607,5.22727272727,6.38888888889,-52.1,-46.6782010861,-1.72882226245,-1.57878787879,-1.92962962963,,,,,,,,,,,372.5,147.9,,,15375740.0,even,asymm,15375200.0,15376974.0,205.0,199.0,upper,53.8138704136,53.8138704136,61.3,31.1,,,512.0,194.578201086,194.578201086,-5.42179891388,-5.42179891388,-238.9,-234.8,,,200.0,184.0,5.0,True,004A,right__,first,526.8
394.314791618,1.0,control,2.0,64.3333333333,165.666666667,garage,no,False,False,compatible,control, 'correction awayHandle', 'correction awayHandle',7.0,85.0,150.0,502.0,475.0,638.0,,,,15386483.0,,,,-17.8,31.4380396484,0.952667868135,31.4380396484,0.952667868135,0.189766838924,0.189766838924,,0.189766838924,-0.539393939394,-0.107444668008,,-0.107444668008,,,,,,,,,,,,,,,,,,,,,,,,,,,,,,,,,,,,,,,,494.2,,,,12.6,6.7495749726,0.104915673149,0.381818181818,0.19585492228,,,,,,,,,,,,,,,,576.6,,,,undefined,SS06.asc,1.0,overlap,638.0,right,354.195407017,black,32.0,F,control,25.0,50.0,4000.0,50.0,50.0,0.0,hammer,0.0,12.0,asymm_garage_hammer,0.0,1.0,7.0,right,539.0,871.0,396.0,15386450.0,,,,1.0,33.0,,,,332.0,,,,299.0,,,,3.0,yes,180.0,240.0,2.6,51.8380396484,1.57084968632,51.8380396484,1.57084968632,0.312905671922,0.312905671922,0.0787878787879,0.0156941649899,,,,,,,,,,,,,,,,,,,,,,,,,,,,514.6,,,,-171.2,-177.050425027,-2.7520791455,-5.18787878788,-2.66113989637,,,,,,,,,,,,,,,,392.8,,,,15386151.0,even,asymm,15385641.0,15387022.0,207.0,201.0,lower,-49.2380396484,-49.2380396484,-17.3,,,,512.0,569.850425027,569.850425027,5.8504250274,5.8504250274,196.1,,,,564.0,-180.0,-6.0,True,004A,left__,first,576.6
393.949191359,1.0,control,2.0,32.3333333333,176.333333333,garage,no,False,False,incompatible,control, 'correction awayHandle', 'correction awayHandle',7.0,85.0,150.0,529.0,470.0,632.0,,,,15396791.0,,,,21.5,-11.7045987775,-0.354684811438,-11.7045987775,-0.354684811438,-0.0663776868287,-0.0663776868287,,0.0663776868287,0.651515151515,0.121928166352,,-0.121928166352,,,,,,,,,,,,,,,,,,,,,,,,,,,,,,,,,,,,,,,,533.5,,,,8.3,8.12701903509,0.251351104178,0.251515151515,0.256701030928,,,,,,,,,,,,,,,,610.3,,,,undefined,SS06.asc,1.0,zero,632.0,left,406.699552707,black,32.0,B,control,25.0,50.0,4000.0,50.0,50.0,0.0,paintbrush,0.0,12.0,asymm_garage_paintbrush,0.0,1.0,7.0,right,538.0,866.0,396.0,15396751.0,,,,1.0,40.0,,,,328.0,,,,288.0,,,,3.0,yes,180.0,240.0,2.8,-30.4045987775,-0.921351478105,-30.4045987775,-0.921351478105,-0.172426836167,-0.172426836167,0.0848484848485,0.0158790170132,,,,,,,,,,,,,,,,,,,,,,,,,,,,514.8,,,,-210.6,-210.772980965,-6.51875198861,-6.38181818182,-6.51340206186,,,,,,,,,,,,,,,,391.4,,,,15396463.0,even,asymm,15395923.0,15397329.0,209.0,203.0,lower,33.2045987775,33.2045987775,14.8,,,,512.0,602.172980965,602.172980965,0.172980964907,0.172980964907,236.3,,,,602.0,-218.0,-7.0,True,004A,right__,first,610.3
552.985297855,1.0,control,2.0,43.3333333333,176.333333333,kitchen,no,False,False,incompatible,control, 'correction awayHandle', 'correction awayHandle',6.0,85.0,150.0,540.0,430.0,260.0,336,,,15695307.0,15695769,,,-14.8,16.090600737,0.487593961726,16.090600737,0.487593961726,0.0912510438769,0.0912510438769,,0.0912510438769,-0.448484848485,-0.0839319470699,,-0.0839319470699,-12.4,18.490600737,0.560321234453,18.490600737,0.560321234453,0.104861629888,0.104861629888,,0.104861629888,-0.375757575758,-0.0703213610586,,-0.0703213610586,,,,,,,,,,,,,,,,,,,,,,,,,,,497.2,499.6,,,-10.4,1.39068818995,0.0320928043835,-0.315151515152,-0.24,-57.2,-45.40931181,-1.04790719562,-1.73333333333,-1.32,,,,,,,,,,,561.6,514.8,,,undefined,SS06.asc,2.0,zero,596.0,right,422.714169955,black,32.0,F,control,25.0,50.0,4000.0,50.0,50.0,2.0,washingbrush,0.0,12.0,asymm_kitchen_washingbrush,1.0,2.0,6.0,left,702.0,984.0,554.0,15695273.0,15695569,,,2.0,34.0,200,,,282.0,744,,,248.0,544,,,3.0,yes,180.0,240.0,0.9,31.790600737,0.963351537484,31.790600737,0.963351537484,0.180286960701,0.180286960701,0.0272727272727,0.00510396975425,-20.4,10.490600737,0.317896992029,10.490600737,0.317896992029,0.0594930098504,0.0594930098504,-0.618181818182,-0.115689981096,,,,,,,,,,,,,,,,,,,512.9,491.6,,,-191.1,-179.30931181,-4.13790719562,-5.79090909091,-4.41,22.0,33.79068819,0.779785112076,0.666666666667,0.507692307692,,,,,,,,,,,380.9,594.0,,,15695025.0,even,asymm,15694475.0,15696009.0,227.0,221.0,lower,-30.890600737,-30.890600737,-15.5,-12.6,,,512.0,560.20931181,560.20931181,-11.79068819,-11.79068819,173.0,160.3,,,572.0,-188.0,-6.0,True,004A,left__,first,561.6
453.989600078,1.0,control,2.0,27.0,184.333333333,kitchen,no,False,False,compatible,control, 'correction smaller than 15', 'correction smaller than 15',6.0,85.0,150.0,644.0,421.0,332.0,316,,,15740840.0,15741195,,,47.8,34.3421320057,1.04067066684,34.3421320057,1.04067066684,0.186304513593,0.186304513593,,-0.186304513593,1.44848484848,0.25931283906,,-0.25931283906,71.8,58.3421320057,1.76794339411,58.3421320057,1.76794339411,0.316503428602,0.316503428602,,-0.316503428602,2.17575757576,0.389511754069,,-0.389511754069,,,,,,,,,,,,,,,,,,,,,,,,,,,559.8,583.8,,,-9.4,-2.10770718495,-0.0780632290721,-0.284848484848,-0.348148148148,-18.3,-11.0077071849,-0.407692858702,-0.554545454545,-0.677777777778,,,,,,,,,,,174.6,165.7,,,undefined,SS06.asc,2.0,zero,648.0,left,390.75132701,black,32.0,B,control,25.0,50.0,4000.0,50.0,50.0,1.0,spoon,0.0,13.0,asymm_kitchen_spoon,1.0,2.0,6.0,left,577.0,877.0,456.0,15740790.0,15741174,,,2.0,50.0,21,,,300.0,655,,,250.0,634,,,3.0,yes,180.0,240.0,3.3,-10.1578679943,-0.307814181645,-10.1578679943,-0.307814181645,-0.0551059746525,-0.0551059746525,0.1,0.0179023508137,41.2,27.7421320057,0.84067066684,27.7421320057,0.84067066684,0.150499811966,0.150499811966,1.24848484848,0.223508137432,,,,,,,,,,,,,,,,,,,515.3,553.2,,,200.9,208.192292815,7.71082565982,6.08787878788,7.44074074074,-12.6,-5.30770718495,-0.196581747591,-0.381818181818,-0.466666666667,,,,,,,,,,,384.9,171.4,,,15740540.0,even,asymm,15739890.0,15741417.0,236.0,230.0,upper,13.4578679943,13.4578679943,42.2,65.1,,,512.0,176.707707185,176.707707185,-7.29229281505,-7.29229281505,-211.3,-215.4,,,184.0,200.0,5.0,True,004A,right__,first,558.6
452.458883768,1.0,control,2.0,66.6666666667,162.666666667,garage,no,False,False,compatible,control, 'correction awayHandle', 'correction awayHandle',7.0,85.0,150.0,517.0,452.0,281.0,369,,,15768870.0,15769174,,,17.7,54.1525052012,1.6409850061,54.1525052012,1.6409850061,0.332904745089,0.332904745089,,0.332904745089,0.536363636364,0.10881147541,,0.10881147541,24.7,61.1525052012,1.85310621822,61.1525052012,1.85310621822,0.375937531974,0.375937531974,,0.375937531974,0.748484848485,0.151844262295,,0.151844262295,,,,,,,,,,,,,,,,,,,,,,,,,,,529.7,536.7,,,31.2,30.783224347,0.461748365205,0.945454545455,0.468,-10.4,-10.816775653,-0.162251634795,-0.315151515152,-0.156,,,,,,,,,,,214.2,172.6,,,undefined,SS06.asc,2.0,overlap,650.0,right,377.255243819,black,32.0,F,control,25.0,50.0,4000.0,50.0,50.0,0.0,mallet,0.0,13.0,asymm_garage_mallet,1.0,2.0,7.0,right,581.0,907.0,455.0,15768826.0,15769153,,,2.0,44.0,21,,,326.0,630,,,282.0,609,,,3.0,yes,180.0,240.0,-8.6,27.8525052012,0.844015309126,27.8525052012,0.844015309126,0.17122441722,0.17122441722,-0.260606060606,-0.052868852459,9.0,45.4525052012,1.37734864246,45.4525052012,1.37734864246,0.279421138532,0.279421138532,0.272727272727,0.0553278688525,,,,,,,,,,,,,,,,,,,503.4,521.0,,,193.1,192.683224347,2.8902483652,5.85151515152,2.8965,33.7,33.283224347,0.499248365205,1.02121212121,0.5055,,,,,,,,,,,376.1,216.7,,,15768544.0,even,asymm,15768023.0,15769451.0,240.0,234.0,upper,-36.4525052012,-36.4525052012,12.2,20.4,,,512.0,183.416775653,183.416775653,0.416775653024,0.416775653024,-170.1,-195.9,,,183.0,201.0,5.0,True,004A,left__,first,598.2
579.308892414,1.0,control,2.0,27.0,176.333333333,garage,no,False,False,incompatible,control, 'correction towardsHandle', 'correction towardsHandle',7.0,85.0,150.0,540.0,537.0,116.0,193,461,,15773908.0,15774043,15774253,,20.6,74.4138704136,2.25496577011,74.4138704136,2.25496577011,0.422006826542,0.422006826542,,-0.422006826542,0.624242424242,0.116824196597,,-0.116824196597,18.2,72.0138704136,2.18223849738,72.0138704136,2.18223849738,0.408396240531,0.408396240531,,-0.408396240531,0.551515151515,0.103213610586,,-0.103213610586,-2.7,51.1138704136,1.54890516405,51.1138704136,1.54890516405,0.289870720682,0.289870720682,,-0.289870720682,-0.0818181818182,-0.0153119092628,,0.0153119092628,,,,,,,,,,,,,,532.6,530.2,509.3,,28.9,34.3217989139,1.27117773755,0.875757575758,1.07037037037,15.3,20.7217989139,0.767474033848,0.463636363636,0.566666666667,2.3,7.72179891388,0.285992552366,0.069696969697,0.0851851851852,,,,,,642.9,629.3,616.3,,undefined,SS06.asc,3.0,overlap,770.0,left,415.912757858,black,32.0,B,control,25.0,50.0,4000.0,50.0,50.0,0.0,screwdriver,0.0,13.0,asymm_garage_screwdriver,1.0,3.0,7.0,right,715.0,1119.0,582.0,15773853.0,15774026,15774238,,3.0,55.0,17,15,,404.0,539,749,,349.0,522,734,,3.0,yes,180.0,240.0,-4.4,49.4138704136,1.49739001253,49.4138704136,1.49739001253,0.280229888924,0.280229888924,-0.133333333333,-0.0249527410208,17.0,70.8138704136,2.14587486102,70.8138704136,2.14587486102,0.401590947525,0.401590947525,0.515151515152,0.0964083175803,14.8,68.6138704136,2.07920819435,68.6138704136,2.07920819435,0.389114577015,0.389114577015,0.448484848485,0.0839319470699,,,,,,,,,,507.6,529.0,526.8,,-209.2,-203.778201086,-7.54734078097,-6.33939393939,-7.74814814815,58.8,64.2217989139,2.37858514496,1.78181818182,2.17777777778,28.1,33.5217989139,1.24154810792,0.851515151515,1.04074074074,,,,,,404.8,672.8,642.1,,15773504.0,even,asymm,15772954.0,15774623.0,241.0,235.0,lower,-53.8138704136,-53.8138704136,17.3,14.1,-2.8,,512.0,608.578201086,608.578201086,-5.42179891388,-5.42179891388,277.8,256.9,234.1,,614.0,-230.0,-7.0,True,004A,left__,first,642.9
889.724314854,1.0,control,2.0,29.3333333333,173.333333333,garage,no,False,False,compatible,control, 'correction smaller than 15', 'correction smaller than 15',7.0,85.0,150.0,515.0,379.0,260.0,160,678,,15795647.0,15795926,15796103,,59.1,57.8942486794,1.7543711721,57.8942486794,1.7543711721,0.334005280842,0.334005280842,,0.334005280842,1.79090909091,0.340961538462,,0.340961538462,21.5,20.2942486794,0.614977232708,20.2942486794,0.614977232708,0.117082203919,0.117082203919,,0.117082203919,0.651515151515,0.124038461538,,0.124038461538,-7.9,-9.10575132064,-0.275931858201,-9.10575132064,-0.275931858201,-0.052533180696,-0.052533180696,,-0.052533180696,-0.239393939394,-0.0455769230769,,-0.0455769230769,,,,,,,,,,,,,,571.1,533.5,504.1,,-7.7,-6.41475380049,-0.218684788653,-0.233333333333,-0.2625,-37.0,-35.7147538005,-1.21754842502,-1.12121212121,-1.26136363636,-25.8,-24.5147538005,-0.835730243199,-0.781818181818,-0.879545454545,,,,,,162.3,133.0,144.2,,undefined,SS06.asc,3.0,zero,1098.0,right,279.307259789,black,32.0,F,control,25.0,50.0,4000.0,50.0,50.0,0.0,chisel2,0.0,14.0,asymm_garage_chisel2,1.0,4.0,7.0,right,1030.0,1271.0,892.0,15795600.0,15795909,15796088,,3.0,47.0,17,15,,241.0,520,697,,194.0,503,682,,3.0,yes,180.0,240.0,5.1,3.89424867936,0.118007535738,3.89424867936,0.118007535738,0.022466819304,0.022466819304,0.154545454545,0.0294230769231,51.6,50.3942486794,1.52709844483,50.3942486794,1.52709844483,0.290736050073,0.290736050073,1.56363636364,0.297692307692,21.3,20.0942486794,0.608916626647,20.0942486794,0.608916626647,0.115928357766,0.115928357766,0.645454545455,0.122884615385,,,,,,,,,,517.1,563.6,533.3,,218.5,219.7852462,7.49267884771,6.62121212121,7.44886363636,-8.2,-6.91475380049,-0.235730243199,-0.248484848485,-0.279545454545,-22.1,-20.8147538005,-0.709593879562,-0.669696969697,-0.753409090909,,,,,,388.5,161.8,147.9,,15795406.0,even,asymm,15794886.0,15796677.0,245.0,239.0,upper,1.20575132064,1.20575132064,53.7,20.6,-6.7,,512.0,168.7147538,168.7147538,-1.28524619951,-1.28524619951,-222.7,-238.8,-234.7,,170.0,214.0,6.0,True,004A,right__,first,546.3
370.13985158,1.0,control,2.0,24.0,176.0,garage,no,False,False,compatible,control, 'correction towardsHandle', 'correction towardsHandle',7.0,85.0,150.0,606.0,456.0,123.0,201,253,,15810686.0,15810821,15811035,,14.8,-9.77643558182,-0.296255623692,-9.77643558182,-0.296255623692,-0.0555479294422,-0.0555479294422,,-0.0555479294422,0.448484848485,0.0840909090909,,0.0840909090909,12.0,-12.5764355818,-0.38110410854,-12.5764355818,-0.38110410854,-0.0714570203513,-0.0714570203513,,-0.0714570203513,0.363636363636,0.0681818181818,,0.0681818181818,1.2,-23.3764355818,-0.708376835813,-23.3764355818,-0.708376835813,-0.132820656715,-0.132820656715,,-0.132820656715,0.0363636363636,0.00681818181818,,0.00681818181818,,,,,,,,,,,,,,526.8,524.0,513.2,,22.6,25.6972598783,1.0707191616,0.684848484848,0.941666666667,4.7,7.79725987834,0.324885828264,0.142424242424,0.195833333333,-5.4,-2.30274012166,-0.0959475050691,-0.163636363636,-0.225,,,,,,613.6,595.7,585.6,,undefined,SS06.asc,3.0,overlap,577.0,right,419.062475671,black,32.0,F,control,25.0,50.0,4000.0,50.0,50.0,0.0,chisel,0.0,14.0,asymm_garage_chisel,1.0,3.0,7.0,right,509.0,827.0,371.0,15810644.0,15810811,15811024,,3.0,42.0,10,11,,318.0,453,667,,276.0,443,656,,3.0,yes,180.0,240.0,-6.9,-31.4764355818,-0.953831381267,-31.4764355818,-0.953831381267,-0.178843383988,-0.178843383988,-0.209090909091,-0.0392045454545,19.8,-4.77643558182,-0.144740472176,-4.77643558182,-0.144740472176,-0.0271388385331,-0.0271388385331,0.6,0.1125,10.4,-14.1764355818,-0.429588957025,-14.1764355818,-0.429588957025,-0.0805479294422,-0.0805479294422,0.315151515152,0.0590909090909,,,,,,,,,,505.1,531.8,522.4,,-198.9,-195.802740122,-8.15844750507,-6.02727272727,-8.2875,28.1,31.1972598783,1.29988582826,0.851515151515,1.17083333333,16.8,19.8972598783,0.829052494931,0.509090909091,0.7,,,,,,392.1,619.1,607.8,,15810368.0,even,asymm,15809758.0,15811195.0,248.0,242.0,lower,24.5764355818,24.5764355818,21.2,12.0,0.8,,512.0,587.902740122,587.902740122,-3.09725987834,-3.09725987834,227.3,220.5,203.5,,591.0,-207.0,-7.0,True,004A,right__,first,613.6
331.182394117,1.0,control,2.0,64.3333333333,165.666666667,garage,no,False,False,incompatible,control, 'correction awayHandle', 'correction awayHandle',7.0,85.0,150.0,501.0,438.0,592.0,,,,15830788.0,,,,63.7,14.4619603516,0.438241222774,14.4619603516,0.438241222774,0.0872955353213,0.0872955353213,,-0.0872955353213,1.9303030303,0.384507042254,,-0.384507042254,,,,,,,,,,,,,,,,,,,,,,,,,,,,,,,,,,,,,,,,575.7,,,,-37.8,-43.6504250274,-0.67850401597,-1.14545454545,-0.587564766839,,,,,,,,,,,,,,,,578.2,,,,undefined,SS06.asc,1.0,zero,592.0,left,353.170391769,black,32.0,B,control,25.0,50.0,4000.0,50.0,50.0,0.0,hammer,0.0,14.0,asymm_garage_hammer,0.0,3.0,7.0,right,493.0,771.0,333.0,15830738.0,,,,1.0,50.0,,,,278.0,,,,228.0,,,,3.0,yes,180.0,240.0,14.6,-34.6380396484,-1.0496375651,-34.6380396484,-1.0496375651,-0.209082734296,-0.209082734296,0.442424242424,0.0881287726358,,,,,,,,,,,,,,,,,,,,,,,,,,,,526.6,,,,-224.9,-230.750425027,-3.58679417141,-6.81515151515,-3.49585492228,,,,,,,,,,,,,,,,391.1,,,,15830510.0,even,asymm,15830000.0,15831281.0,251.0,245.0,lower,49.2380396484,49.2380396484,52.8,,,,512.0,621.850425027,621.850425027,5.8504250274,5.8504250274,219.5,,,,616.0,-232.0,-7.0,True,004A,right__,first,578.2
554.180807663,1.0,control,2.0,43.3333333333,176.333333333,kitchen,no,False,False,compatible,control, 'correction awayHandle', 'correction awayHandle',6.0,85.0,150.0,560.0,394.0,234.0,555,,,15900909.0,15901163,,,49.9,19.009399263,0.57604240191,19.009399263,0.57604240191,0.107803776539,0.107803776539,,-0.107803776539,1.51212121212,0.282986767486,,-0.282986767486,68.9,38.009399263,1.15179997767,38.009399263,1.15179997767,0.215554249129,0.215554249129,,-0.215554249129,2.08787878788,0.390737240076,,-0.390737240076,,,,,,,,,,,,,,,,,,,,,,,,,,,561.9,580.9,,,-20.8,-9.00931181005,-0.207907195617,-0.630303030303,-0.48,-53.1,-41.30931181,-0.953291811001,-1.60909090909,-1.22538461538,,,,,,,,,,,141.2,108.9,,,undefined,SS06.asc,2.0,zero,789.0,left,447.713509353,black,32.0,B,control,25.0,50.0,4000.0,50.0,50.0,0.0,washingbrush,0.0,14.0,asymm_kitchen_washingbrush,1.0,4.0,6.0,left,709.0,950.0,556.0,15900857.0,15901145,,,2.0,52.0,18,,,241.0,495,,,189.0,477,,,3.0,yes,180.0,240.0,-10.3,-41.190600737,-1.24820002233,-41.190600737,-1.24820002233,-0.233595089246,-0.233595089246,-0.312121212121,-0.0584120982987,47.8,16.909399263,0.512406038274,16.909399263,0.512406038274,0.0958945137791,0.0958945137791,1.44848484848,0.271077504726,,,,,,,,,,,,,,,,,,,501.7,559.8,,,250.8,262.59068819,6.05978511208,7.6,5.78769230769,-10.4,1.39068818995,0.0320928043835,-0.315151515152,-0.24,,,,,,,,,,,412.8,151.6,,,15900668.0,even,asymm,15900098.0,15901618.0,263.0,257.0,upper,30.890600737,30.890600737,49.0,62.2,,,512.0,150.20931181,150.20931181,-11.79068819,-11.79068819,-238.8,-264.4,,,162.0,222.0,6.0,True,004A,right__,first,525.2
732.096149653,1.0,control,2.0,24.0,181.333333333,kitchen,no,False,False,compatible,control, 'correction towardsHandle', 'correction towardsHandle',6.0,85.0,150.0,549.0,416.0,986.0,,,,15918434.0,,,,-18.0,3.75345682355,0.113741115865,3.75345682355,0.113741115865,0.020699210424,0.020699210424,,-0.020699210424,-0.545454545455,-0.0992647058824,,0.0992647058824,,,,,,,,,,,,,,,,,,,,,,,,,,,,,,,,,,,,,,,,494.0,,,,9.5,16.9402257957,0.705842741488,0.287878787879,0.395833333333,,,,,,,,,,,,,,,,587.5,,,,undefined,SS06.asc,1.0,zero,986.0,left,434.366674964,black,32.0,B,control,25.0,50.0,4000.0,50.0,50.0,0.0,sharpeningsteel,0.0,16.0,asymm_kitchen_sharpeningsteel,0.0,5.0,6.0,left,885.0,1149.0,733.0,15918402.0,,,,1.0,32.0,,,,264.0,,,,232.0,,,,3.0,yes,180.0,240.0,-5.5,16.2534568235,0.492528994653,16.2534568235,0.492528994653,0.0896330339534,0.0896330339534,-0.166666666667,-0.0303308823529,,,,,,,,,,,,,,,,,,,,,,,,,,,,506.5,,,,-170.6,-163.159774204,-6.79832392518,-5.1696969697,-7.10833333333,,,,,,,,,,,,,,,,407.4,,,,15918170.0,even,asymm,15917610.0,15919319.0,266.0,260.0,lower,-21.7534568235,-21.7534568235,-26.5,,,,512.0,570.559774204,570.559774204,-7.44022579572,-7.44022579572,209.3,,,,578.0,-194.0,-6.0,True,004A,left__,first,587.5
310.876089653,1.0,control,2.0,66.6666666667,162.666666667,garage,no,False,False,incompatible,control, 'correction awayHandle', 'correction awayHandle',7.0,85.0,150.0,570.0,424.0,551.0,,,,15933330.0,,,,60.6,24.1474947988,0.731742266631,24.1474947988,0.731742266631,0.148447713927,0.148447713927,,-0.148447713927,1.83636363636,0.372540983607,,-0.372540983607,,,,,,,,,,,,,,,,,,,,,,,,,,,,,,,,,,,,,,,,572.6,,,,0.3,-0.116775653024,-0.00175163479536,0.00909090909091,0.0045,,,,,,,,,,,,,,,,175.3,,,,undefined,SS06.asc,1.0,zero,551.0,left,473.552830453,black,32.0,B,control,25.0,50.0,4000.0,50.0,50.0,0.0,mallet,0.0,15.0,asymm_garage_mallet,0.0,4.0,7.0,right,458.0,737.0,313.0,15933280.0,,,,1.0,50.0,,,,279.0,,,,229.0,,,,3.0,yes,180.0,240.0,-4.4,-40.8525052012,-1.23795470307,-40.8525052012,-1.23795470307,-0.251142450007,-0.251142450007,-0.133333333333,-0.0270491803279,,,,,,,,,,,,,,,,,,,,,,,,,,,,507.6,,,,220.5,220.083224347,3.3012483652,6.68181818182,3.3075,,,,,,,,,,,,,,,,395.5,,,,15933051.0,even,asymm,15932471.0,15933788.0,268.0,262.0,upper,36.4525052012,36.4525052012,49.2,,,,512.0,175.416775653,175.416775653,0.416775653024,0.416775653024,-202.8,,,,175.0,209.0,6.0,True,004A,right__,first,559.3
574.621186307,1.0,control,2.0,22.0,144.666666667,kitchen,no,False,False,incompatible,control, 'correction smaller than 15', 'correction smaller than 15',6.0,85.0,150.0,411.0,523.0,247.0,568,,,15960424.0,15960687,,,11.2,11.9641027481,0.362548568124,11.9641027481,0.362548568124,0.0827011710697,0.0827011710697,,0.0827011710697,0.339393939394,0.0774193548387,,0.0774193548387,-17.3,-16.5358972519,-0.501087795513,-16.5358972519,-0.501087795513,-0.114303437225,-0.114303437225,,-0.114303437225,-0.524242424242,-0.119585253456,,-0.119585253456,,,,,,,,,,,,,,,,,,,,,,,,,,,523.2,494.7,,,-28.7,-22.5064931194,-1.02302241452,-0.869696969697,-1.30454545455,-42.9,-36.7064931194,-1.66847695997,-1.3,-1.95,,,,,,,,,,,157.3,143.1,,,undefined,SS06.asc,2.0,overlap,815.0,right,263.512969463,black,32.0,F,control,25.0,50.0,4000.0,50.0,50.0,0.0,peeler,0.0,17.0,asymm_kitchen_peeler,1.0,5.0,6.0,left,731.0,1100.0,577.0,15960374.0,15960673,,,2.0,50.0,14,,,369.0,632,,,319.0,618,,,3.0,yes,180.0,240.0,-9.1,-8.33589725192,-0.252602947028,-8.33589725192,-0.252602947028,-0.0576214095755,-0.0576214095755,-0.275757575758,-0.0629032258065,4.9,5.66410274808,0.171639477215,5.66410274808,0.171639477215,0.0391527839729,0.0391527839729,0.148484848485,0.0338709677419,,,,,,,,,,,,,,,,,,,502.9,516.9,,,199.0,205.193506881,9.32697758548,6.0303030303,9.04545454545,-17.3,-11.1064931194,-0.504840596338,-0.524242424242,-0.786363636364,,,,,,,,,,,385.0,168.7,,,15960055.0,even,asymm,15959635.0,15961155.0,273.0,267.0,upper,-0.764102748085,-0.764102748085,5.9,-18.6,,,512.0,179.806493119,179.806493119,-6.19350688056,-6.19350688056,-223.2,-232.7,,,186.0,198.0,5.0,True,004A,left__,first,541.3
620.75675822,1.0,control,2.0,32.0,176.0,garage,no,False,False,incompatible,control, 'correction awayHandle', 'correction awayHandle',7.0,85.0,150.0,544.0,441.0,852.0,,,,15964883.0,,,,78.3,57.1741921447,1.73255127711,57.1741921447,1.73255127711,0.324853364459,0.324853364459,,-0.324853364459,2.37272727273,0.444886363636,,-0.444886363636,,,,,,,,,,,,,,,,,,,,,,,,,,,,,,,,,,,,,,,,590.3,,,,-9.3,-11.0018335026,-0.343807296957,-0.281818181818,-0.290625,,,,,,,,,,,,,,,,191.7,,,,undefined,SS06.asc,1.0,overlap,852.0,left,419.56599617,black,32.0,B,control,25.0,50.0,4000.0,50.0,50.0,0.0,wrench,0.0,16.0,asymm_garage_wrench,0.0,5.0,7.0,right,755.0,1063.0,622.0,15964834.0,,,,1.0,49.0,,,,308.0,,,,259.0,,,,3.0,yes,180.0,240.0,6.0,-15.1258078553,-0.458357813796,-15.1258078553,-0.458357813796,-0.0859420900867,-0.0859420900867,0.181818181818,0.0340909090909,,,,,,,,,,,,,,,,,,,,,,,,,,,,518.0,,,,188.4,186.698166497,5.83431770304,5.70909090909,5.8875,,,,,,,,,,,,,,,,389.4,,,,15964575.0,even,asymm,15964025.0,15965638.0,274.0,268.0,upper,21.1258078553,21.1258078553,73.1,,,,512.0,202.701833503,202.701833503,1.70183350261,1.70183350261,-194.5,,,,201.0,183.0,5.0,True,004A,right__,first,575.7
462.188494823,1.0,control,2.0,32.3333333333,176.333333333,garage,no,False,False,compatible,control, 'correction awayHandle', 'correction awayHandle',7.0,85.0,150.0,503.0,493.0,166.0,186,365,,15988230.0,15988418,15988612,,9.8,43.0045987775,1.30316965992,43.0045987775,1.30316965992,0.243882412727,0.243882412727,,0.243882412727,0.29696969697,0.0555765595463,,0.0555765595463,-23.1,10.1045987775,0.306199962954,10.1045987775,0.306199962954,0.0573039628212,0.0573039628212,,0.0573039628212,-0.7,-0.131001890359,,-0.131001890359,-33.0,0.204598777466,0.00619996295351,0.204598777466,0.00619996295351,0.00116029552438,0.00116029552438,,0.00116029552438,-1.0,-0.187145557656,,-0.187145557656,,,,,,,,,,,,,,521.8,488.9,479.0,,-30.6,-30.7729809649,-0.951741679327,-0.927272727273,-0.946391752577,1.2,1.02701903509,0.0317634753121,0.0363636363636,0.0371134020619,-0.8,-0.972980964907,-0.0300921947909,-0.0242424242424,-0.0247422680412,,,,,,565.4,597.2,595.2,,undefined,SS06.asc,3.0,overlap,717.0,right,351.131990395,black,32.0,F,control,25.0,50.0,4000.0,50.0,50.0,0.0,paintbrush,0.0,16.0,asymm_garage_paintbrush,1.0,5.0,7.0,right,655.0,957.0,464.0,15988196.0,15988398,15988606,,3.0,34.0,20,6,,302.0,490,684,,268.0,470,678,,3.0,yes,180.0,240.0,7.0,40.2045987775,1.21832117507,40.2045987775,1.21832117507,0.228003395713,0.228003395713,0.212121212121,0.0396975425331,13.3,46.5045987775,1.40923026598,46.5045987775,1.40923026598,0.263731183993,0.263731183993,0.40303030303,0.0754253308129,-22.8,10.4045987775,0.315290872044,10.4045987775,0.315290872044,0.0590052860726,0.0590052860726,-0.690909090909,-0.129300567108,,,,,,,,,,519.0,525.3,489.2,,-210.8,-210.972980965,-6.52493755562,-6.38787878788,-6.51958762887,-32.4,-32.5729809649,-1.00741178242,-0.981818181818,-1.00206185567,2.8,2.62701903509,0.0812480113946,0.0848484848485,0.0865979381443,,,,,,385.2,563.6,598.8,,15987928.0,even,asymm,15987417.0,15988885.0,279.0,273.0,lower,-33.2045987775,-33.2045987775,11.6,-18.5,-34.8,,512.0,596.172980965,596.172980965,0.172980964907,0.172980964907,172.7,211.1,211.9,,596.0,-212.0,-7.0,True,004A,left__,first,565.4
532.205366877,1.0,control,2.0,29.3333333333,173.333333333,garage,no,False,False,incompatible,control, 'correction smaller than 15', 'correction smaller than 15',7.0,85.0,150.0,579.0,404.0,163.0,440,,,15997609.0,15997938,,,91.6,92.8057513206,2.81229549456,92.8057513206,2.81229549456,0.535417796081,0.535417796081,,-0.535417796081,2.77575757576,0.528461538462,,-0.528461538462,127.0,128.205751321,3.88502276729,128.205751321,3.88502276729,0.739648565311,0.739648565311,,-0.739648565311,3.84848484848,0.732692307692,,-0.732692307692,,,,,,,,,,,,,,,,,,,,,,,,,,,603.6,639.0,,,-36.7,-35.4147538005,-1.20732115229,-1.11212121212,-1.25113636364,-118.1,-116.8147538,-3.98232115229,-3.57878787879,-4.02613636364,,,,,,,,,,,162.3,80.9,,,undefined,SS06.asc,2.0,overlap,603.0,left,483.183830671,black,32.0,B,control,25.0,50.0,4000.0,50.0,50.0,1.0,chisel2,0.0,16.0,asymm_garage_chisel2,1.0,6.0,7.0,right,678.0,938.0,534.0,15997573.0,15997774,,,2.0,36.0,164,,,260.0,589,,,224.0,425,,,3.0,yes,180.0,240.0,-0.6,0.605751320639,0.0183561006254,0.605751320639,0.0183561006254,0.00349471915753,0.00349471915753,-0.0181818181818,-0.00346153846154,76.4,77.6057513206,2.35168943396,77.6057513206,2.35168943396,0.447725488388,0.447725488388,2.31515151515,0.440769230769,,,,,,,,,,,,,,,,,,,511.4,588.4,,,187.4,188.6852462,6.43245157498,5.67878787879,6.38863636364,-13.1,-11.8147538005,-0.402775697744,-0.39696969697,-0.446590909091,,,,,,,,,,,386.4,185.9,,,15997349.0,even,asymm,15996759.0,15998287.0,281.0,275.0,upper,-1.20575132064,-1.20575132064,83.1,111.6,,,512.0,197.7147538,197.7147538,-1.28524619951,-1.28524619951,-204.6,-278.5,,,199.0,185.0,5.0,True,004A,left__,first,546.3
