RT,accuracy,aff_lum,block_count,cat,catch_trial,checkFixDotFailed,checkObjectFailed,comp,cond,correct_response,count_trial_sequence,cutoff_warning_msg,dev_for_warning,durCheck1,durCheck2,expId,eye_used,file,gap,handle_side,jitter_dur,large_fix_col,large_fix_size,latin_square_letter,mask_side,max_dev_fix,max_dev_object,max_samples,min_samples_fix,min_samples_object,n_blink,object,offlineDriftCorr,outlier,overall_rep,picture_name,rep,response,response_hand,rtOnset,sacc10_duration,sacc10_eTime,sacc10_ex,sacc10_ey,sacc10_sTime,sacc10_size,sacc10_sx,sacc10_sy,sacc1_duration,sacc1_eTime,sacc1_ex,sacc1_ey,sacc1_sTime,sacc1_size,sacc1_sx,sacc1_sy,sacc2_duration,sacc2_eTime,sacc2_ex,sacc2_ey,sacc2_sTime,sacc2_size,sacc2_sx,sacc2_sy,sacc3_duration,sacc3_eTime,sacc3_ex,sacc3_ey,sacc3_sTime,sacc3_size,sacc3_sx,sacc3_sy,sacc4_duration,sacc4_eTime,sacc4_ex,sacc4_ey,sacc4_sTime,sacc4_size,sacc4_sx,sacc4_sy,sacc5_duration,sacc5_eTime,sacc5_ex,sacc5_ey,sacc5_sTime,sacc5_size,sacc5_sx,sacc5_sy,sacc6_duration,sacc6_eTime,sacc6_ex,sacc6_ey,sacc6_sTime,sacc6_size,sacc6_sx,sacc6_sy,sacc7_duration,sacc7_eTime,sacc7_ex,sacc7_ey,sacc7_sTime,sacc7_size,sacc7_sx,sacc7_sy,sacc8_duration,sacc8_eTime,sacc8_ex,sacc8_ey,sacc8_sTime,sacc8_size,sacc8_sx,sacc8_sy,sacc9_duration,sacc9_eTime,sacc9_ex,sacc9_ey,sacc9_sTime,sacc9_size,sacc9_sx,sacc9_sy,saccCount,scale,scale_item,scaled_height,scaled_width,stim_onset,subject_parity,symm,timestampFixOnset,trialId,trial_count,visual_field,y_stim,y_stim_degrees,realAngle,xCog,xStim,yStim,flip,stim_name,stim_type,devAngle,xRot1,yRot1,xFlipped1,yFlipped1,xNorm1,yNorm1,xNormOnCenter1,yNormOnCenter1,xNormCorr1,xRot2,yRot2,xFlipped2,yFlipped2,xNorm2,yNorm2,xNormOnCenter2,yNormOnCenter2,xNormCorr2,xRot3,yRot3,xFlipped3,yFlipped3,xNorm3,yNorm3,xNormOnCenter3,yNormOnCenter3,xNormCorr3,xRot4,yRot4,xFlipped4,yFlipped4,xNorm4,yNorm4,xNormOnCenter4,yNormOnCenter4,xNormCorr4,xRot5,yRot5,xFlipped5,yFlipped5,xNorm5,yNorm5,xNormOnCenter5,yNormOnCenter5,xNormCorr5,wBoxScaled,hBoxScaled,xCogScaled,xCogScaledDegr,xCogNorm,stimFile,saccLat1,saccLat2,saccLat3,saccLat4,saccLat5,__dummyCond__,__stdOutlier__,ws_xNormCorr1,bin_saccLat1
966.784662444,1.0,control,0.0,kitchen,no,False,False,compatible,('handle_left',,1.0,0.0,85.0,150.0,1269.0,296.0,004A,undefined,PP12.asc,zero,left,445.896455922,black,32.0,B,control,25.0,50.0,4000.0,50.0,50.0,0.0,peeler,False,0.0,1.0,asymm_kitchen_peeler,1.0,1.0,left,1498145.0,-1000.0,-1000.0,-1000.0,-1000.0,-1000.0,-1000.0,-1000.0,-1000.0,43.0,1497066.0,503.6,551.4,1497023.0,181.803410309,518.4,370.2,19.0,1497259.0,551.4,575.0,1497240.0,52.2861358297,499.2,572.0,-1000.0,-1000.0,-1000.0,-1000.0,-1000.0,-1000.0,-1000.0,-1000.0,-1000.0,-1000.0,-1000.0,-1000.0,-1000.0,-1000.0,-1000.0,-1000.0,-1000.0,-1000.0,-1000.0,-1000.0,-1000.0,-1000.0,-1000.0,-1000.0,-1000.0,-1000.0,-1000.0,-1000.0,-1000.0,-1000.0,-1000.0,-1000.0,-1000.0,-1000.0,-1000.0,-1000.0,-1000.0,-1000.0,-1000.0,-1000.0,-1000.0,-1000.0,-1000.0,-1000.0,-1000.0,-1000.0,-1000.0,-1000.0,-1000.0,-1000.0,-1000.0,-1000.0,-1000.0,-1000.0,-1000.0,-1000.0,2.0,3.0,yes,180.0,240.0,1496877.0,even,asymm,1495607.0,0.0,0.0,lower,-199.0,-6.0,180.0,0.384262651214,0.0,-199.0,left,peeler,object,no,8.4,-167.4,8.4,-167.4,0.0583333333333,-1.31666666667,-8.4,167.4,0.0574438364555,-39.4,-191.0,-39.4,-191.0,-0.273611111111,-0.333333333333,39.4,191.0,-0.274500607989,-1000.0,-1000.0,-1000.0,-1000.0,-1000.0,-1000.0,-1000.0,-1000.0,-1000.0,-1000.0,-1000.0,-1000.0,-1000.0,-1000.0,-1000.0,-1000.0,-1000.0,-1000.0,-1000.0,-1000.0,-1000.0,-1000.0,-1000.0,-1000.0,-1000.0,-1000.0,-1000.0,144.0,24.0,0.128087550405,0.00376728089425,0.00088949687781,object_peeler.png,146.0,363.0,0.0,0.0,0.0,__dummy__PP12.asc__,0.0,0.0569391877569,10.0
611.272790984,1.0,control,0.0,kitchen,no,False,False,compatible,('handle_left',,1.0,0.0,85.0,150.0,1118.0,297.0,004A,undefined,PP12.asc,zero,left,411.217900292,black,32.0,B,control,25.0,50.0,4000.0,50.0,50.0,0.0,fork,False,0.0,1.0,asymm_kitchen_fork,1.0,1.0,left,1510475.0,-1000.0,-1000.0,-1000.0,-1000.0,-1000.0,-1000.0,-1000.0,-1000.0,35.0,1509749.0,524.7,198.7,1509714.0,164.462092897,517.4,363.0,19.0,1509906.0,571.1,210.9,1509887.0,47.0086162315,524.1,211.8,26.0,1510382.0,478.0,207.6,1510356.0,88.4902819523,566.3,213.4,-1000.0,-1000.0,-1000.0,-1000.0,-1000.0,-1000.0,-1000.0,-1000.0,-1000.0,-1000.0,-1000.0,-1000.0,-1000.0,-1000.0,-1000.0,-1000.0,-1000.0,-1000.0,-1000.0,-1000.0,-1000.0,-1000.0,-1000.0,-1000.0,-1000.0,-1000.0,-1000.0,-1000.0,-1000.0,-1000.0,-1000.0,-1000.0,-1000.0,-1000.0,-1000.0,-1000.0,-1000.0,-1000.0,-1000.0,-1000.0,-1000.0,-1000.0,-1000.0,-1000.0,-1000.0,-1000.0,-1000.0,-1000.0,3.0,3.0,yes,180.0,240.0,1509558.0,even,asymm,1508438.0,3.0,3.0,upper,206.0,6.0,0.0,31.0319959052,0.0,206.0,left,fork,object,no,12.7,-185.3,-12.7,-185.3,-0.0679144385027,-0.559459459459,12.7,-185.3,-0.123229939225,59.1,-173.1,-59.1,-173.1,-0.316042780749,-0.889189189189,59.1,-173.1,-0.371358281471,-34.0,-176.4,34.0,-176.4,0.181818181818,-0.8,-34.0,-176.4,0.126502681096,-1000.0,-1000.0,-1000.0,-1000.0,-1000.0,-1000.0,-1000.0,-1000.0,-1000.0,-1000.0,-1000.0,-1000.0,-1000.0,-1000.0,-1000.0,-1000.0,-1000.0,-1000.0,187.0,37.0,10.3439986351,0.304235253973,0.0553155007223,object_fork.png,156.0,329.0,798.0,0.0,0.0,__dummy__PP12.asc__,0.0,-0.123734587924,30.0
735.481974564,1.0,control,0.0,kitchen,no,False,False,incompatible,('handle_right',,1.0,0.0,85.0,150.0,528.0,481.0,004A,undefined,PP12.asc,overlap,right,429.451176242,black,32.0,D,control,25.0,50.0,4000.0,50.0,50.0,0.0,sharpeningsteel,False,0.0,1.0,asymm_kitchen_sharpeningsteel,1.0,1.0,left,1538174.0,-1000.0,-1000.0,-1000.0,-1000.0,-1000.0,-1000.0,-1000.0,-1000.0,28.0,1537131.0,542.3,250.8,1537103.0,122.016269407,514.9,369.7,14.0,1537313.0,550.7,220.1,1537299.0,31.3588902865,536.0,247.8,23.0,1537582.0,465.9,220.7,1537559.0,82.0347487349,547.8,225.4,-1000.0,-1000.0,-1000.0,-1000.0,-1000.0,-1000.0,-1000.0,-1000.0,-1000.0,-1000.0,-1000.0,-1000.0,-1000.0,-1000.0,-1000.0,-1000.0,-1000.0,-1000.0,-1000.0,-1000.0,-1000.0,-1000.0,-1000.0,-1000.0,-1000.0,-1000.0,-1000.0,-1000.0,-1000.0,-1000.0,-1000.0,-1000.0,-1000.0,-1000.0,-1000.0,-1000.0,-1000.0,-1000.0,-1000.0,-1000.0,-1000.0,-1000.0,-1000.0,-1000.0,-1000.0,-1000.0,-1000.0,-1000.0,3.0,3.0,yes,180.0,240.0,1536951.0,even,asymm,1536421.0,9.0,9.0,upper,187.0,5.0,0.0,28.4188527416,0.0,187.0,right,sharpeningsteel,object,no,30.3,-133.2,30.3,-133.2,0.167403314917,-2.152,30.3,-133.2,0.115066569537,38.7,-163.9,38.7,-163.9,0.213812154696,-0.924,38.7,-163.9,0.161475409316,-46.1,-163.3,-46.1,-163.3,-0.254696132597,-0.948,-46.1,-163.3,-0.307032877977,-1000.0,-1000.0,-1000.0,-1000.0,-1000.0,-1000.0,-1000.0,-1000.0,-1000.0,-1000.0,-1000.0,-1000.0,-1000.0,-1000.0,-1000.0,-1000.0,-1000.0,-1000.0,181.0,25.0,9.47295091387,0.278616203349,0.0523367453805,object_sharpeningsteel.png,152.0,348.0,608.0,0.0,0.0,__dummy__PP12.asc__,0.0,0.114561920838,20.0
1568.70416464,1.0,control,0.0,kitchen,no,False,False,compatible,('handle_left',,1.0,0.0,85.0,150.0,4432.0,440.0,004A,undefined,PP12.asc,overlap,left,449.086559322,black,32.0,B,control,25.0,50.0,4000.0,50.0,50.0,0.0,knife,False,0.0,1.0,asymm_kitchen_knife,1.0,1.0,left,1547645.0,-1000.0,-1000.0,-1000.0,-1000.0,-1000.0,-1000.0,-1000.0,-1000.0,45.0,1545917.0,495.4,549.8,1545872.0,181.764490482,514.1,369.0,16.0,1546098.0,477.8,593.0,1546082.0,35.7962288517,496.7,562.6,22.0,1546329.0,560.2,575.9,1546307.0,75.4629047943,485.3,585.1,27.0,1547023.0,458.8,586.6,1546996.0,97.8225434141,556.6,588.7,-1000.0,-1000.0,-1000.0,-1000.0,-1000.0,-1000.0,-1000.0,-1000.0,-1000.0,-1000.0,-1000.0,-1000.0,-1000.0,-1000.0,-1000.0,-1000.0,-1000.0,-1000.0,-1000.0,-1000.0,-1000.0,-1000.0,-1000.0,-1000.0,-1000.0,-1000.0,-1000.0,-1000.0,-1000.0,-1000.0,-1000.0,-1000.0,-1000.0,-1000.0,-1000.0,-1000.0,-1000.0,-1000.0,-1000.0,-1000.0,4.0,3.0,yes,180.0,240.0,1545632.0,even,asymm,1541192.0,10.0,10.0,lower,-224.0,-7.0,180.0,1.97018009304,0.0,-224.0,left,knife,object,no,16.6,-165.8,16.6,-165.8,0.0943181818182,-2.64545454545,-16.6,165.8,0.0905867801268,34.2,-209.0,34.2,-209.0,0.194318181818,-0.681818181818,-34.2,209.0,0.190586780127,-48.2,-191.9,-48.2,-191.9,-0.273863636364,-1.45909090909,48.2,191.9,-0.277595038055,53.2,-202.6,53.2,-202.6,0.302272727273,-0.972727272727,-53.2,202.6,0.298541325581,-1000.0,-1000.0,-1000.0,-1000.0,-1000.0,-1000.0,-1000.0,-1000.0,-1000.0,176.0,22.0,0.65672669768,0.0193154911082,0.00373140169136,object_knife.png,240.0,450.0,675.0,1364.0,0.0,__dummy__PP12.asc__,0.0,0.0900821314282,90.0
931.171972076,1.0,control,0.0,garage,no,False,False,compatible,('handle_right',,2.0,0.0,85.0,150.0,526.0,317.0,004A,undefined,PP12.asc,zero,right,412.595233387,black,32.0,D,control,25.0,50.0,4000.0,50.0,50.0,0.0,chisel,False,0.0,1.0,asymm_garage_chisel,1.0,2.0,right,1560416.0,-1000.0,-1000.0,-1000.0,-1000.0,-1000.0,-1000.0,-1000.0,-1000.0,31.0,1559357.0,522.8,225.5,1559326.0,140.435394399,513.1,365.6,10.0,1559544.0,502.2,205.0,1559534.0,22.332263656,515.0,223.3,15.0,1559759.0,462.3,205.3,1559744.0,37.9188607424,500.1,208.3,-1000.0,-1000.0,-1000.0,-1000.0,-1000.0,-1000.0,-1000.0,-1000.0,-1000.0,-1000.0,-1000.0,-1000.0,-1000.0,-1000.0,-1000.0,-1000.0,-1000.0,-1000.0,-1000.0,-1000.0,-1000.0,-1000.0,-1000.0,-1000.0,-1000.0,-1000.0,-1000.0,-1000.0,-1000.0,-1000.0,-1000.0,-1000.0,-1000.0,-1000.0,-1000.0,-1000.0,-1000.0,-1000.0,-1000.0,-1000.0,-1000.0,-1000.0,-1000.0,-1000.0,-1000.0,-1000.0,-1000.0,-1000.0,3.0,3.0,yes,180.0,240.0,1559164.0,even,asymm,1558634.0,13.0,13.0,upper,198.0,5.0,0.0,25.8224210823,0.0,198.0,right,chisel,object,no,10.8,-158.5,10.8,-158.5,0.0613636363636,-1.36206896552,10.8,-158.5,0.012457535829,-9.8,-179.0,-9.8,-179.0,-0.0556818181818,-0.655172413793,-9.8,-179.0,-0.104587918716,-49.7,-178.7,-49.7,-178.7,-0.282386363636,-0.665517241379,-49.7,-178.7,-0.331292464171,-1000.0,-1000.0,-1000.0,-1000.0,-1000.0,-1000.0,-1000.0,-1000.0,-1000.0,-1000.0,-1000.0,-1000.0,-1000.0,-1000.0,-1000.0,-1000.0,-1000.0,-1000.0,176.0,29.0,8.6074736941,0.253160991003,0.0489061005347,object_chisel.png,162.0,370.0,580.0,0.0,0.0,__dummy__PP12.asc__,0.0,0.0119528871304,30.0
340.18540233,1.0,control,0.0,kitchen,no,False,False,compatible,('handle_left',,1.0,0.0,85.0,150.0,911.0,431.0,004A,undefined,PP12.asc,overlap,left,406.719291029,black,32.0,B,control,25.0,50.0,4000.0,50.0,50.0,0.0,spoon,False,0.0,2.0,asymm_kitchen_spoon,2.0,1.0,left,1586724.0,-1000.0,-1000.0,-1000.0,-1000.0,-1000.0,-1000.0,-1000.0,-1000.0,28.0,1586131.0,519.0,245.4,1586103.0,117.110930318,517.4,362.5,22.0,1586275.0,571.1,213.4,1586253.0,63.9640524045,519.5,251.2,25.0,1586566.0,486.7,205.6,1586541.0,86.762030866,572.6,217.8,-1000.0,-1000.0,-1000.0,-1000.0,-1000.0,-1000.0,-1000.0,-1000.0,-1000.0,-1000.0,-1000.0,-1000.0,-1000.0,-1000.0,-1000.0,-1000.0,-1000.0,-1000.0,-1000.0,-1000.0,-1000.0,-1000.0,-1000.0,-1000.0,-1000.0,-1000.0,-1000.0,-1000.0,-1000.0,-1000.0,-1000.0,-1000.0,-1000.0,-1000.0,-1000.0,-1000.0,-1000.0,-1000.0,-1000.0,-1000.0,-1000.0,-1000.0,-1000.0,-1000.0,-1000.0,-1000.0,-1000.0,-1000.0,3.0,3.0,yes,180.0,240.0,1585947.0,even,asymm,1585027.0,19.0,19.0,upper,198.0,5.0,0.0,14.4180022509,0.0,198.0,left,spoon,object,no,7.0,-138.6,-7.0,-138.6,-0.0380434782609,-1.98,7.0,-138.6,-0.064163047556,59.1,-170.6,-59.1,-170.6,-0.321195652174,-0.913333333333,59.1,-170.6,-0.347315221469,-25.3,-178.4,25.3,-178.4,0.1375,-0.653333333333,-25.3,-178.4,0.111380430705,-1000.0,-1000.0,-1000.0,-1000.0,-1000.0,-1000.0,-1000.0,-1000.0,-1000.0,-1000.0,-1000.0,-1000.0,-1000.0,-1000.0,-1000.0,-1000.0,-1000.0,-1000.0,184.0,30.0,4.8060007503,0.141352963244,0.0261195692951,object_spoon.png,156.0,306.0,594.0,0.0,0.0,__dummy__PP12.asc__,0.0,-0.0646676962546,30.0
451.99696238,1.0,control,0.0,garage,no,False,False,incompatible,('handle_left',,2.0,0.0,85.0,150.0,505.0,458.0,004A,undefined,PP12.asc,zero,left,382.028091447,black,32.0,B,control,25.0,50.0,4000.0,50.0,50.0,0.0,wrench,False,0.0,2.0,asymm_garage_wrench,2.0,2.0,right,1605115.0,-1000.0,-1000.0,-1000.0,-1000.0,-1000.0,-1000.0,-1000.0,-1000.0,42.0,1604403.0,523.5,556.0,1604361.0,190.872732469,513.3,365.4,20.0,1604572.0,572.5,596.0,1604552.0,56.3093242723,521.8,571.5,-1000.0,-1000.0,-1000.0,-1000.0,-1000.0,-1000.0,-1000.0,-1000.0,-1000.0,-1000.0,-1000.0,-1000.0,-1000.0,-1000.0,-1000.0,-1000.0,-1000.0,-1000.0,-1000.0,-1000.0,-1000.0,-1000.0,-1000.0,-1000.0,-1000.0,-1000.0,-1000.0,-1000.0,-1000.0,-1000.0,-1000.0,-1000.0,-1000.0,-1000.0,-1000.0,-1000.0,-1000.0,-1000.0,-1000.0,-1000.0,-1000.0,-1000.0,-1000.0,-1000.0,-1000.0,-1000.0,-1000.0,-1000.0,-1000.0,-1000.0,-1000.0,-1000.0,-1000.0,-1000.0,-1000.0,-1000.0,2.0,3.0,yes,180.0,240.0,1604199.0,even,asymm,1603689.0,23.0,23.0,lower,-236.0,-7.0,180.0,22.3837053908,0.0,-236.0,left,wrench,object,no,-11.5,-172.0,-11.5,-172.0,-0.0653409090909,-1.82857142857,11.5,172.0,-0.107734290513,-60.5,-212.0,-60.5,-212.0,-0.34375,-0.685714285714,60.5,212.0,-0.386143381422,-1000.0,-1000.0,-1000.0,-1000.0,-1000.0,-1000.0,-1000.0,-1000.0,-1000.0,-1000.0,-1000.0,-1000.0,-1000.0,-1000.0,-1000.0,-1000.0,-1000.0,-1000.0,-1000.0,-1000.0,-1000.0,-1000.0,-1000.0,-1000.0,-1000.0,-1000.0,-1000.0,176.0,35.0,7.46123513027,0.219448092067,0.042393381422,object_wrench.png,162.0,353.0,0.0,0.0,0.0,__dummy__PP12.asc__,0.0,-0.108238939212,30.0
995.811488998,1.0,control,0.0,kitchen,no,False,False,incompatible,('handle_right',,1.0,0.0,85.0,150.0,474.0,365.0,004A,undefined,PP12.asc,overlap,right,359.371679271,black,32.0,D,control,25.0,50.0,4000.0,50.0,50.0,0.0,spoon2,False,0.0,2.0,asymm_kitchen_spoon2,2.0,1.0,left,1623506.0,-1000.0,-1000.0,-1000.0,-1000.0,-1000.0,-1000.0,-1000.0,-1000.0,43.0,1622380.0,495.7,511.0,1622337.0,169.923070829,518.4,342.6,20.0,1622668.0,443.2,547.7,1622648.0,47.1444588472,488.4,534.3,-1000.0,-1000.0,-1000.0,-1000.0,-1000.0,-1000.0,-1000.0,-1000.0,-1000.0,-1000.0,-1000.0,-1000.0,-1000.0,-1000.0,-1000.0,-1000.0,-1000.0,-1000.0,-1000.0,-1000.0,-1000.0,-1000.0,-1000.0,-1000.0,-1000.0,-1000.0,-1000.0,-1000.0,-1000.0,-1000.0,-1000.0,-1000.0,-1000.0,-1000.0,-1000.0,-1000.0,-1000.0,-1000.0,-1000.0,-1000.0,-1000.0,-1000.0,-1000.0,-1000.0,-1000.0,-1000.0,-1000.0,-1000.0,-1000.0,-1000.0,-1000.0,-1000.0,-1000.0,-1000.0,-1000.0,-1000.0,2.0,3.0,yes,180.0,240.0,1622141.0,even,asymm,1621661.0,27.0,27.0,lower,-190.0,-6.0,180.0,-12.3796717148,0.0,-190.0,right,spoon2,object,no,16.3,-127.0,-16.3,-127.0,-0.0926136363636,-1.43181818182,-16.3,127.0,-0.0691672884189,68.8,-163.7,-68.8,-163.7,-0.390909090909,-0.597727272727,-68.8,163.7,-0.367462742964,-1000.0,-1000.0,-1000.0,-1000.0,-1000.0,-1000.0,-1000.0,-1000.0,-1000.0,-1000.0,-1000.0,-1000.0,-1000.0,-1000.0,-1000.0,-1000.0,-1000.0,-1000.0,-1000.0,-1000.0,-1000.0,-1000.0,-1000.0,-1000.0,-1000.0,-1000.0,-1000.0,176.0,44.0,-4.12655723827,-0.121369330537,-0.0234463479447,object_spoon2.png,196.0,507.0,0.0,0.0,0.0,__dummy__PP12.asc__,0.0,-0.0696719371175,60.0
442.114363898,1.0,control,0.0,garage,no,False,False,incompatible,('handle_left',,2.0,0.0,85.0,150.0,569.0,456.0,004A,undefined,PP12.asc,zero,left,483.507052457,black,32.0,B,control,25.0,50.0,4000.0,50.0,50.0,0.0,mallet,False,0.0,2.0,asymm_garage_mallet,2.0,2.0,right,1631477.0,-1000.0,-1000.0,-1000.0,-1000.0,-1000.0,-1000.0,-1000.0,-1000.0,31.0,1630771.0,538.1,247.2,1630740.0,126.820187667,523.7,373.2,18.0,1630917.0,555.8,208.9,1630899.0,47.6944441209,533.2,250.9,-1000.0,-1000.0,-1000.0,-1000.0,-1000.0,-1000.0,-1000.0,-1000.0,-1000.0,-1000.0,-1000.0,-1000.0,-1000.0,-1000.0,-1000.0,-1000.0,-1000.0,-1000.0,-1000.0,-1000.0,-1000.0,-1000.0,-1000.0,-1000.0,-1000.0,-1000.0,-1000.0,-1000.0,-1000.0,-1000.0,-1000.0,-1000.0,-1000.0,-1000.0,-1000.0,-1000.0,-1000.0,-1000.0,-1000.0,-1000.0,-1000.0,-1000.0,-1000.0,-1000.0,-1000.0,-1000.0,-1000.0,-1000.0,-1000.0,-1000.0,-1000.0,-1000.0,-1000.0,-1000.0,-1000.0,-1000.0,2.0,3.0,yes,180.0,240.0,1630572.0,even,asymm,1629992.0,29.0,29.0,upper,193.0,5.0,0.0,38.1359159379,0.0,193.0,left,mallet,object,no,26.1,-136.8,-26.1,-136.8,-0.161111111111,-0.693827160494,26.1,-136.8,-0.239580073946,43.8,-175.1,-43.8,-175.1,-0.27037037037,-0.220987654321,43.8,-175.1,-0.348839333206,-1000.0,-1000.0,-1000.0,-1000.0,-1000.0,-1000.0,-1000.0,-1000.0,-1000.0,-1000.0,-1000.0,-1000.0,-1000.0,-1000.0,-1000.0,-1000.0,-1000.0,-1000.0,-1000.0,-1000.0,-1000.0,-1000.0,-1000.0,-1000.0,-1000.0,-1000.0,-1000.0,162.0,81.0,12.7119719793,0.373881528803,0.0784689628352,object_mallet.png,168.0,327.0,0.0,0.0,0.0,__dummy__PP12.asc__,0.0,-0.240084722645,40.0
927.724980515,1.0,control,0.0,kitchen,no,False,False,incompatible,('handle_right',,1.0,0.0,85.0,150.0,484.0,376.0,004A,undefined,PP12.asc,zero,right,370.271327475,black,32.0,D,control,25.0,50.0,4000.0,50.0,50.0,0.0,peeler,False,0.0,3.0,asymm_kitchen_peeler,3.0,1.0,left,1639893.0,-1000.0,-1000.0,-1000.0,-1000.0,-1000.0,-1000.0,-1000.0,-1000.0,43.0,1638828.0,492.5,530.0,1638785.0,163.369825855,520.8,369.1,-1000.0,-1000.0,-1000.0,-1000.0,-1000.0,-1000.0,-1000.0,-1000.0,-1000.0,-1000.0,-1000.0,-1000.0,-1000.0,-1000.0,-1000.0,-1000.0,-1000.0,-1000.0,-1000.0,-1000.0,-1000.0,-1000.0,-1000.0,-1000.0,-1000.0,-1000.0,-1000.0,-1000.0,-1000.0,-1000.0,-1000.0,-1000.0,-1000.0,-1000.0,-1000.0,-1000.0,-1000.0,-1000.0,-1000.0,-1000.0,-1000.0,-1000.0,-1000.0,-1000.0,-1000.0,-1000.0,-1000.0,-1000.0,-1000.0,-1000.0,-1000.0,-1000.0,-1000.0,-1000.0,-1000.0,-1000.0,-1000.0,-1000.0,-1000.0,-1000.0,-1000.0,-1000.0,-1000.0,-1000.0,1.0,3.0,yes,180.0,240.0,1638583.0,even,asymm,1638093.0,31.0,31.0,lower,-198.0,-6.0,180.0,-0.384262651214,0.0,-198.0,right,peeler,object,no,19.5,-146.0,-19.5,-146.0,-0.135416666667,-2.16666666667,-19.5,146.0,-0.134527169789,-1000.0,-1000.0,-1000.0,-1000.0,-1000.0,-1000.0,-1000.0,-1000.0,-1000.0,-1000.0,-1000.0,-1000.0,-1000.0,-1000.0,-1000.0,-1000.0,-1000.0,-1000.0,-1000.0,-1000.0,-1000.0,-1000.0,-1000.0,-1000.0,-1000.0,-1000.0,-1000.0,-1000.0,-1000.0,-1000.0,-1000.0,-1000.0,-1000.0,-1000.0,-1000.0,-1000.0,144.0,24.0,-0.128087550405,-0.00376728089425,-0.00088949687781,object_peeler.png,202.0,0.0,0.0,0.0,0.0,__dummy__PP12.asc__,0.0,-0.135031818488,60.0
624.066537911,1.0,control,0.0,kitchen,no,False,False,incompatible,('handle_right',,1.0,0.0,85.0,150.0,658.0,337.0,004A,undefined,PP12.asc,zero,right,326.17487485,black,32.0,D,control,25.0,50.0,4000.0,50.0,50.0,0.0,washingbrush,False,0.0,2.0,asymm_kitchen_washingbrush,2.0,1.0,left,1672113.0,-1000.0,-1000.0,-1000.0,-1000.0,-1000.0,-1000.0,-1000.0,-1000.0,42.0,1671368.0,502.7,511.2,1671326.0,150.305954639,520.9,362.0,20.0,1671539.0,447.4,540.4,1671519.0,54.4655854646,499.9,525.9,-1000.0,-1000.0,-1000.0,-1000.0,-1000.0,-1000.0,-1000.0,-1000.0,-1000.0,-1000.0,-1000.0,-1000.0,-1000.0,-1000.0,-1000.0,-1000.0,-1000.0,-1000.0,-1000.0,-1000.0,-1000.0,-1000.0,-1000.0,-1000.0,-1000.0,-1000.0,-1000.0,-1000.0,-1000.0,-1000.0,-1000.0,-1000.0,-1000.0,-1000.0,-1000.0,-1000.0,-1000.0,-1000.0,-1000.0,-1000.0,-1000.0,-1000.0,-1000.0,-1000.0,-1000.0,-1000.0,-1000.0,-1000.0,-1000.0,-1000.0,-1000.0,-1000.0,-1000.0,-1000.0,-1000.0,-1000.0,2.0,3.0,yes,180.0,240.0,1671146.0,even,asymm,1670486.0,37.0,37.0,lower,-181.0,-6.0,180.0,-34.2563568121,0.0,-181.0,right,washingbrush,object,no,9.3,-127.2,-9.3,-127.2,-0.0528409090909,-1.22272727273,-9.3,127.2,0.0120385545684,64.6,-156.4,-64.6,-156.4,-0.367045454545,-0.559090909091,-64.6,156.4,-0.302165990886,-1000.0,-1000.0,-1000.0,-1000.0,-1000.0,-1000.0,-1000.0,-1000.0,-1000.0,-1000.0,-1000.0,-1000.0,-1000.0,-1000.0,-1000.0,-1000.0,-1000.0,-1000.0,-1000.0,-1000.0,-1000.0,-1000.0,-1000.0,-1000.0,-1000.0,-1000.0,-1000.0,176.0,44.0,-11.418785604,-0.335846635413,-0.0648794636593,object_washingbrush.png,180.0,373.0,0.0,0.0,0.0,__dummy__PP12.asc__,0.0,0.0115339058698,50.0
515.72083984,1.0,control,0.0,kitchen,no,False,False,incompatible,('handle_right',,1.0,0.0,85.0,150.0,488.0,459.0,004A,undefined,PP12.asc,zero,right,363.037377472,black,32.0,D,control,25.0,50.0,4000.0,50.0,50.0,0.0,fork,False,0.0,3.0,asymm_kitchen_fork,3.0,1.0,left,1684630.0,-1000.0,-1000.0,-1000.0,-1000.0,-1000.0,-1000.0,-1000.0,-1000.0,34.0,1683826.0,501.2,207.8,1683792.0,167.211303446,522.1,373.7,18.0,1683994.0,458.4,189.1,1683976.0,44.7823625996,494.5,215.6,-1000.0,-1000.0,-1000.0,-1000.0,-1000.0,-1000.0,-1000.0,-1000.0,-1000.0,-1000.0,-1000.0,-1000.0,-1000.0,-1000.0,-1000.0,-1000.0,-1000.0,-1000.0,-1000.0,-1000.0,-1000.0,-1000.0,-1000.0,-1000.0,-1000.0,-1000.0,-1000.0,-1000.0,-1000.0,-1000.0,-1000.0,-1000.0,-1000.0,-1000.0,-1000.0,-1000.0,-1000.0,-1000.0,-1000.0,-1000.0,-1000.0,-1000.0,-1000.0,-1000.0,-1000.0,-1000.0,-1000.0,-1000.0,-1000.0,-1000.0,-1000.0,-1000.0,-1000.0,-1000.0,-1000.0,-1000.0,2.0,3.0,yes,180.0,240.0,1683648.0,even,asymm,1683148.0,40.0,40.0,upper,221.0,6.0,0.0,-31.0319959052,0.0,221.0,right,fork,object,no,-10.8,-176.2,-10.8,-176.2,-0.0577540106952,-1.21081081081,-10.8,-176.2,-0.00243850997291,-53.6,-194.9,-53.6,-194.9,-0.286631016043,-0.705405405405,-53.6,-194.9,-0.23131551532,-1000.0,-1000.0,-1000.0,-1000.0,-1000.0,-1000.0,-1000.0,-1000.0,-1000.0,-1000.0,-1000.0,-1000.0,-1000.0,-1000.0,-1000.0,-1000.0,-1000.0,-1000.0,-1000.0,-1000.0,-1000.0,-1000.0,-1000.0,-1000.0,-1000.0,-1000.0,-1000.0,187.0,37.0,-10.3439986351,-0.304235253973,-0.0553155007223,object_fork.png,144.0,328.0,0.0,0.0,0.0,__dummy__PP12.asc__,0.0,-0.00294315867151,10.0
361.218295688,1.0,control,0.0,garage,no,False,False,incompatible,('handle_left',,2.0,0.0,85.0,150.0,554.0,457.0,004A,undefined,PP12.asc,overlap,left,458.555486213,black,32.0,B,control,25.0,50.0,4000.0,50.0,50.0,0.0,screwdriver,False,0.0,3.0,asymm_garage_screwdriver,3.0,2.0,right,1719269.0,-1000.0,-1000.0,-1000.0,-1000.0,-1000.0,-1000.0,-1000.0,-1000.0,32.0,1718622.0,503.5,218.3,1718590.0,146.604536083,516.8,364.3,15.0,1718782.0,473.4,194.5,1718767.0,34.0625894494,493.5,222.0,20.0,1719012.0,528.2,190.2,1718992.0,56.1103377284,473.1,200.8,-1000.0,-1000.0,-1000.0,-1000.0,-1000.0,-1000.0,-1000.0,-1000.0,-1000.0,-1000.0,-1000.0,-1000.0,-1000.0,-1000.0,-1000.0,-1000.0,-1000.0,-1000.0,-1000.0,-1000.0,-1000.0,-1000.0,-1000.0,-1000.0,-1000.0,-1000.0,-1000.0,-1000.0,-1000.0,-1000.0,-1000.0,-1000.0,-1000.0,-1000.0,-1000.0,-1000.0,-1000.0,-1000.0,-1000.0,-1000.0,-1000.0,-1000.0,-1000.0,-1000.0,-1000.0,-1000.0,-1000.0,-1000.0,3.0,3.0,yes,180.0,240.0,1718442.0,even,asymm,1717881.0,47.0,47.0,upper,216.0,6.0,0.0,-46.3571312645,0.0,216.0,left,screwdriver,object,no,-8.5,-165.7,8.5,-165.7,0.05,-2.09583333333,-8.5,-165.7,0.140896335813,-38.6,-189.5,38.6,-189.5,0.227058823529,-1.10416666667,-38.6,-189.5,0.317955159342,16.2,-193.8,-16.2,-193.8,-0.0952941176471,-0.925,16.2,-193.8,-0.00439778183431,-1000.0,-1000.0,-1000.0,-1000.0,-1000.0,-1000.0,-1000.0,-1000.0,-1000.0,-1000.0,-1000.0,-1000.0,-1000.0,-1000.0,-1000.0,-1000.0,-1000.0,-1000.0,170.0,24.0,-15.4523770882,-0.454481679064,-0.0908963358127,object_screwdriver.png,148.0,325.0,550.0,0.0,0.0,__dummy__PP12.asc__,0.0,0.140391687114,20.0
263.667632997,1.0,control,0.0,garage,no,False,False,incompatible,('handle_left',,2.0,0.0,85.0,150.0,528.0,469.0,004A,undefined,PP12.asc,zero,left,413.361576111,black,32.0,B,control,25.0,50.0,4000.0,50.0,50.0,0.0,hammer,False,0.0,3.0,asymm_garage_hammer,3.0,2.0,right,1723393.0,-1000.0,-1000.0,-1000.0,-1000.0,-1000.0,-1000.0,-1000.0,-1000.0,35.0,1722847.0,535.6,210.4,1722812.0,162.942474512,523.6,372.9,19.0,1723009.0,576.2,189.5,1722990.0,53.3892311239,530.2,216.6,-1000.0,-1000.0,-1000.0,-1000.0,-1000.0,-1000.0,-1000.0,-1000.0,-1000.0,-1000.0,-1000.0,-1000.0,-1000.0,-1000.0,-1000.0,-1000.0,-1000.0,-1000.0,-1000.0,-1000.0,-1000.0,-1000.0,-1000.0,-1000.0,-1000.0,-1000.0,-1000.0,-1000.0,-1000.0,-1000.0,-1000.0,-1000.0,-1000.0,-1000.0,-1000.0,-1000.0,-1000.0,-1000.0,-1000.0,-1000.0,-1000.0,-1000.0,-1000.0,-1000.0,-1000.0,-1000.0,-1000.0,-1000.0,-1000.0,-1000.0,-1000.0,-1000.0,-1000.0,-1000.0,-1000.0,-1000.0,2.0,3.0,yes,180.0,240.0,1722652.0,even,asymm,1722122.0,48.0,48.0,upper,228.0,6.0,0.0,49.0924872956,0.0,228.0,left,hammer,object,no,23.6,-173.6,-23.6,-173.6,-0.14303030303,-0.663414634146,23.6,-173.6,-0.242207045042,64.2,-194.5,-64.2,-194.5,-0.389090909091,-0.408536585366,64.2,-194.5,-0.488267651102,-1000.0,-1000.0,-1000.0,-1000.0,-1000.0,-1000.0,-1000.0,-1000.0,-1000.0,-1000.0,-1000.0,-1000.0,-1000.0,-1000.0,-1000.0,-1000.0,-1000.0,-1000.0,-1000.0,-1000.0,-1000.0,-1000.0,-1000.0,-1000.0,-1000.0,-1000.0,-1000.0,165.0,82.0,16.3641624319,0.481298895055,0.0991767420113,object_hammer.png,160.0,338.0,0.0,0.0,0.0,__dummy__PP12.asc__,0.0,-0.242711693741,30.0
400.269328677,1.0,control,0.0,kitchen,no,False,False,incompatible,('handle_right',,1.0,0.0,85.0,150.0,533.0,310.0,004A,undefined,PP12.asc,overlap,right,424.706090608,black,32.0,D,control,25.0,50.0,4000.0,50.0,50.0,0.0,knife,False,0.0,3.0,asymm_kitchen_knife,3.0,1.0,left,1736140.0,-1000.0,-1000.0,-1000.0,-1000.0,-1000.0,-1000.0,-1000.0,-1000.0,41.0,1735628.0,530.7,553.3,1735587.0,180.471742941,520.8,373.1,24.0,1735863.0,460.7,565.8,1735839.0,71.1016174218,531.7,569.6,-1000.0,-1000.0,-1000.0,-1000.0,-1000.0,-1000.0,-1000.0,-1000.0,-1000.0,-1000.0,-1000.0,-1000.0,-1000.0,-1000.0,-1000.0,-1000.0,-1000.0,-1000.0,-1000.0,-1000.0,-1000.0,-1000.0,-1000.0,-1000.0,-1000.0,-1000.0,-1000.0,-1000.0,-1000.0,-1000.0,-1000.0,-1000.0,-1000.0,-1000.0,-1000.0,-1000.0,-1000.0,-1000.0,-1000.0,-1000.0,-1000.0,-1000.0,-1000.0,-1000.0,-1000.0,-1000.0,-1000.0,-1000.0,-1000.0,-1000.0,-1000.0,-1000.0,-1000.0,-1000.0,-1000.0,-1000.0,2.0,3.0,yes,180.0,240.0,1735424.0,even,asymm,1734883.0,50.0,50.0,lower,-203.0,-6.0,180.0,-1.97018009304,0.0,-203.0,right,knife,object,no,-18.7,-169.3,18.7,-169.3,0.10625,-1.53181818182,18.7,169.3,0.109981401691,51.3,-181.8,-51.3,-181.8,-0.291477272727,-0.963636363636,-51.3,181.8,-0.287745871036,-1000.0,-1000.0,-1000.0,-1000.0,-1000.0,-1000.0,-1000.0,-1000.0,-1000.0,-1000.0,-1000.0,-1000.0,-1000.0,-1000.0,-1000.0,-1000.0,-1000.0,-1000.0,-1000.0,-1000.0,-1000.0,-1000.0,-1000.0,-1000.0,-1000.0,-1000.0,-1000.0,176.0,22.0,-0.65672669768,-0.0193154911082,-0.00373140169136,object_knife.png,163.0,415.0,0.0,0.0,0.0,__dummy__PP12.asc__,0.0,0.109476752992,40.0
240.753704161,1.0,control,0.0,kitchen,no,False,False,incompatible,('handle_right',,1.0,0.0,85.0,150.0,513.0,439.0,004A,undefined,PP12.asc,overlap,right,400.461829474,black,32.0,D,control,25.0,50.0,4000.0,50.0,50.0,0.0,spoon,False,0.0,4.0,asymm_kitchen_spoon,4.0,1.0,left,1755834.0,-1000.0,-1000.0,-1000.0,-1000.0,-1000.0,-1000.0,-1000.0,-1000.0,30.0,1755320.0,498.9,228.4,1755290.0,139.247190277,519.6,366.1,19.0,1755473.0,464.5,200.0,1755454.0,46.6699046496,497.3,233.2,-1000.0,-1000.0,-1000.0,-1000.0,-1000.0,-1000.0,-1000.0,-1000.0,-1000.0,-1000.0,-1000.0,-1000.0,-1000.0,-1000.0,-1000.0,-1000.0,-1000.0,-1000.0,-1000.0,-1000.0,-1000.0,-1000.0,-1000.0,-1000.0,-1000.0,-1000.0,-1000.0,-1000.0,-1000.0,-1000.0,-1000.0,-1000.0,-1000.0,-1000.0,-1000.0,-1000.0,-1000.0,-1000.0,-1000.0,-1000.0,-1000.0,-1000.0,-1000.0,-1000.0,-1000.0,-1000.0,-1000.0,-1000.0,-1000.0,-1000.0,-1000.0,-1000.0,-1000.0,-1000.0,-1000.0,-1000.0,2.0,3.0,yes,180.0,240.0,1755146.0,even,asymm,1754625.0,55.0,55.0,upper,208.0,6.0,0.0,-14.4180022509,0.0,208.0,right,spoon,object,no,-13.1,-155.6,-13.1,-155.6,-0.0711956521739,-1.74666666667,-13.1,-155.6,-0.0450760828788,-47.5,-184.0,-47.5,-184.0,-0.258152173913,-0.8,-47.5,-184.0,-0.232032604618,-1000.0,-1000.0,-1000.0,-1000.0,-1000.0,-1000.0,-1000.0,-1000.0,-1000.0,-1000.0,-1000.0,-1000.0,-1000.0,-1000.0,-1000.0,-1000.0,-1000.0,-1000.0,-1000.0,-1000.0,-1000.0,-1000.0,-1000.0,-1000.0,-1000.0,-1000.0,-1000.0,184.0,30.0,-4.8060007503,-0.141352963244,-0.0261195692951,object_spoon.png,144.0,308.0,0.0,0.0,0.0,__dummy__PP12.asc__,0.0,-0.0455807315774,10.0
511.51456573,1.0,control,0.0,garage,no,False,False,compatible,('handle_right',,2.0,0.0,85.0,150.0,570.0,286.0,004A,undefined,PP12.asc,overlap,right,472.39171393,black,32.0,D,control,25.0,50.0,4000.0,50.0,50.0,0.0,wrench,False,0.0,4.0,asymm_garage_wrench,4.0,2.0,right,1759798.0,-1000.0,-1000.0,-1000.0,-1000.0,-1000.0,-1000.0,-1000.0,-1000.0,31.0,1759170.0,489.6,223.8,1759139.0,149.83544307,518.1,370.9,16.0,1759337.0,449.7,210.9,1759321.0,40.4411918717,485.4,229.9,-1000.0,-1000.0,-1000.0,-1000.0,-1000.0,-1000.0,-1000.0,-1000.0,-1000.0,-1000.0,-1000.0,-1000.0,-1000.0,-1000.0,-1000.0,-1000.0,-1000.0,-1000.0,-1000.0,-1000.0,-1000.0,-1000.0,-1000.0,-1000.0,-1000.0,-1000.0,-1000.0,-1000.0,-1000.0,-1000.0,-1000.0,-1000.0,-1000.0,-1000.0,-1000.0,-1000.0,-1000.0,-1000.0,-1000.0,-1000.0,-1000.0,-1000.0,-1000.0,-1000.0,-1000.0,-1000.0,-1000.0,-1000.0,-1000.0,-1000.0,-1000.0,-1000.0,-1000.0,-1000.0,-1000.0,-1000.0,2.0,3.0,yes,180.0,240.0,1758996.0,even,asymm,1758416.0,56.0,56.0,upper,195.0,5.0,0.0,-22.3837053908,0.0,195.0,right,wrench,object,no,-22.4,-160.2,-22.4,-160.2,-0.127272727273,-0.994285714286,-22.4,-160.2,-0.0848793458508,-62.3,-173.1,-62.3,-173.1,-0.353977272727,-0.625714285714,-62.3,-173.1,-0.311583891305,-1000.0,-1000.0,-1000.0,-1000.0,-1000.0,-1000.0,-1000.0,-1000.0,-1000.0,-1000.0,-1000.0,-1000.0,-1000.0,-1000.0,-1000.0,-1000.0,-1000.0,-1000.0,-1000.0,-1000.0,-1000.0,-1000.0,-1000.0,-1000.0,-1000.0,-1000.0,-1000.0,176.0,35.0,-7.46123513027,-0.219448092067,-0.042393381422,object_wrench.png,143.0,325.0,0.0,0.0,0.0,__dummy__PP12.asc__,0.0,-0.0853839945494,10.0
333.726009662,1.0,control,0.0,garage,no,False,False,incompatible,('handle_left',,2.0,0.0,85.0,150.0,420.0,501.0,004A,undefined,PP12.asc,overlap,left,304.6780376,black,32.0,B,control,25.0,50.0,4000.0,50.0,50.0,0.0,paintbrush,False,0.0,4.0,asymm_garage_paintbrush,4.0,2.0,right,1790281.0,-1000.0,-1000.0,-1000.0,-1000.0,-1000.0,-1000.0,-1000.0,-1000.0,26.0,1789668.0,538.0,267.4,1789642.0,100.947560644,527.5,367.8,21.0,1789836.0,566.6,228.7,1789815.0,52.7713937659,533.5,269.8,-1000.0,-1000.0,-1000.0,-1000.0,-1000.0,-1000.0,-1000.0,-1000.0,-1000.0,-1000.0,-1000.0,-1000.0,-1000.0,-1000.0,-1000.0,-1000.0,-1000.0,-1000.0,-1000.0,-1000.0,-1000.0,-1000.0,-1000.0,-1000.0,-1000.0,-1000.0,-1000.0,-1000.0,-1000.0,-1000.0,-1000.0,-1000.0,-1000.0,-1000.0,-1000.0,-1000.0,-1000.0,-1000.0,-1000.0,-1000.0,-1000.0,-1000.0,-1000.0,-1000.0,-1000.0,-1000.0,-1000.0,-1000.0,-1000.0,-1000.0,-1000.0,-1000.0,-1000.0,-1000.0,-1000.0,-1000.0,2.0,3.0,yes,180.0,240.0,1789439.0,even,asymm,1789009.0,64.0,64.0,upper,174.0,5.0,0.0,30.6897921115,0.0,174.0,left,paintbrush,object,no,26.0,-116.6,-26.0,-116.6,-0.147727272727,-1.64,26.0,-116.6,-0.205851878999,54.6,-155.3,-54.6,-155.3,-0.310227272727,-0.534285714286,54.6,-155.3,-0.368351878999,-1000.0,-1000.0,-1000.0,-1000.0,-1000.0,-1000.0,-1000.0,-1000.0,-1000.0,-1000.0,-1000.0,-1000.0,-1000.0,-1000.0,-1000.0,-1000.0,-1000.0,-1000.0,-1000.0,-1000.0,-1000.0,-1000.0,-1000.0,-1000.0,-1000.0,-1000.0,-1000.0,176.0,35.0,10.2299307038,0.300880314819,0.0581246062718,object_paintbrush.png,203.0,376.0,0.0,0.0,0.0,__dummy__PP12.asc__,0.0,-0.206356527698,60.0
208.024821495,1.0,control,0.0,garage,no,False,False,incompatible,('handle_left',,2.0,0.0,85.0,150.0,485.0,460.0,004A,undefined,PP12.asc,overlap,left,362.544491963,black,32.0,B,control,25.0,50.0,4000.0,50.0,50.0,0.0,chisel2,False,0.0,4.0,asymm_garage_chisel2,4.0,2.0,right,1812005.0,-1000.0,-1000.0,-1000.0,-1000.0,-1000.0,-1000.0,-1000.0,-1000.0,32.0,1811520.0,523.7,224.2,1811488.0,141.902854094,522.8,366.1,21.0,1811669.0,563.1,179.3,1811648.0,63.5692535743,518.0,224.1,-1000.0,-1000.0,-1000.0,-1000.0,-1000.0,-1000.0,-1000.0,-1000.0,-1000.0,-1000.0,-1000.0,-1000.0,-1000.0,-1000.0,-1000.0,-1000.0,-1000.0,-1000.0,-1000.0,-1000.0,-1000.0,-1000.0,-1000.0,-1000.0,-1000.0,-1000.0,-1000.0,-1000.0,-1000.0,-1000.0,-1000.0,-1000.0,-1000.0,-1000.0,-1000.0,-1000.0,-1000.0,-1000.0,-1000.0,-1000.0,-1000.0,-1000.0,-1000.0,-1000.0,-1000.0,-1000.0,-1000.0,-1000.0,-1000.0,-1000.0,-1000.0,-1000.0,-1000.0,-1000.0,-1000.0,-1000.0,2.0,3.0,yes,180.0,240.0,1811332.0,even,asymm,1810842.0,69.0,69.0,upper,232.0,6.0,0.0,3.84729150124,0.0,232.0,left,chisel2,object,no,11.7,-159.8,-11.7,-159.8,-0.0664772727273,-2.06285714286,11.7,-159.8,-0.0737638096614,51.1,-204.7,-51.1,-204.7,-0.290340909091,-0.78,51.1,-204.7,-0.297627446025,-1000.0,-1000.0,-1000.0,-1000.0,-1000.0,-1000.0,-1000.0,-1000.0,-1000.0,-1000.0,-1000.0,-1000.0,-1000.0,-1000.0,-1000.0,-1000.0,-1000.0,-1000.0,-1000.0,-1000.0,-1000.0,-1000.0,-1000.0,-1000.0,-1000.0,-1000.0,-1000.0,176.0,35.0,1.28243050041,0.0377185441298,0.00728653693417,object_chisel2.png,156.0,316.0,0.0,0.0,0.0,__dummy__PP12.asc__,0.0,-0.07426845836,30.0
322.248020255,1.0,control,0.0,garage,no,False,False,compatible,('handle_right',,2.0,0.0,85.0,150.0,508.0,461.0,004A,undefined,PP12.asc,zero,right,389.716768665,black,32.0,D,control,25.0,50.0,4000.0,50.0,50.0,0.0,mallet,False,0.0,4.0,asymm_garage_mallet,4.0,2.0,right,1829105.0,-1000.0,-1000.0,-1000.0,-1000.0,-1000.0,-1000.0,-1000.0,-1000.0,42.0,1828529.0,500.7,539.5,1828487.0,141.704657651,530.2,400.9,24.0,1828672.0,466.2,596.1,1828648.0,46.6309982737,492.8,557.8,-1000.0,-1000.0,-1000.0,-1000.0,-1000.0,-1000.0,-1000.0,-1000.0,-1000.0,-1000.0,-1000.0,-1000.0,-1000.0,-1000.0,-1000.0,-1000.0,-1000.0,-1000.0,-1000.0,-1000.0,-1000.0,-1000.0,-1000.0,-1000.0,-1000.0,-1000.0,-1000.0,-1000.0,-1000.0,-1000.0,-1000.0,-1000.0,-1000.0,-1000.0,-1000.0,-1000.0,-1000.0,-1000.0,-1000.0,-1000.0,-1000.0,-1000.0,-1000.0,-1000.0,-1000.0,-1000.0,-1000.0,-1000.0,-1000.0,-1000.0,-1000.0,-1000.0,-1000.0,-1000.0,-1000.0,-1000.0,2.0,3.0,yes,180.0,240.0,1828314.0,even,asymm,1827804.0,73.0,73.0,lower,-231.0,-7.0,180.0,-38.1359159379,0.0,-231.0,right,mallet,object,no,11.3,-155.5,-11.3,-155.5,-0.0697530864198,-0.932098765432,-11.3,155.5,0.00871587641543,45.8,-212.1,-45.8,-212.1,-0.282716049383,-0.233333333333,-45.8,212.1,-0.204247086548,-1000.0,-1000.0,-1000.0,-1000.0,-1000.0,-1000.0,-1000.0,-1000.0,-1000.0,-1000.0,-1000.0,-1000.0,-1000.0,-1000.0,-1000.0,-1000.0,-1000.0,-1000.0,-1000.0,-1000.0,-1000.0,-1000.0,-1000.0,-1000.0,-1000.0,-1000.0,-1000.0,162.0,81.0,-12.7119719793,-0.373881528803,-0.0784689628352,object_mallet.png,173.0,334.0,0.0,0.0,0.0,__dummy__PP12.asc__,0.0,0.00821122771683,40.0
541.760798277,1.0,control,0.0,kitchen,no,False,False,compatible,('handle_left',,1.0,0.0,85.0,150.0,459.0,277.0,004A,undefined,PP12.asc,zero,left,337.125795325,black,32.0,B,control,25.0,50.0,4000.0,50.0,50.0,0.0,sharpeningsteel,False,0.0,5.0,asymm_kitchen_sharpeningsteel,5.0,1.0,left,1836548.0,-1000.0,-1000.0,-1000.0,-1000.0,-1000.0,-1000.0,-1000.0,-1000.0,45.0,1835895.0,486.1,564.0,1835850.0,190.825601008,526.5,377.5,17.0,1836089.0,515.8,594.0,1836072.0,37.2307668468,483.1,576.2,-1000.0,-1000.0,-1000.0,-1000.0,-1000.0,-1000.0,-1000.0,-1000.0,-1000.0,-1000.0,-1000.0,-1000.0,-1000.0,-1000.0,-1000.0,-1000.0,-1000.0,-1000.0,-1000.0,-1000.0,-1000.0,-1000.0,-1000.0,-1000.0,-1000.0,-1000.0,-1000.0,-1000.0,-1000.0,-1000.0,-1000.0,-1000.0,-1000.0,-1000.0,-1000.0,-1000.0,-1000.0,-1000.0,-1000.0,-1000.0,-1000.0,-1000.0,-1000.0,-1000.0,-1000.0,-1000.0,-1000.0,-1000.0,-1000.0,-1000.0,-1000.0,-1000.0,-1000.0,-1000.0,-1000.0,-1000.0,2.0,3.0,yes,180.0,240.0,1835724.0,even,asymm,1835255.0,75.0,75.0,lower,-228.0,-7.0,180.0,-28.4188527416,0.0,-228.0,left,sharpeningsteel,object,no,25.9,-180.0,25.9,-180.0,0.143093922652,-1.92,-25.9,180.0,0.195430668032,-3.8,-210.0,-3.8,-210.0,-0.0209944751381,-0.72,3.8,210.0,0.0313422702424,-1000.0,-1000.0,-1000.0,-1000.0,-1000.0,-1000.0,-1000.0,-1000.0,-1000.0,-1000.0,-1000.0,-1000.0,-1000.0,-1000.0,-1000.0,-1000.0,-1000.0,-1000.0,-1000.0,-1000.0,-1000.0,-1000.0,-1000.0,-1000.0,-1000.0,-1000.0,-1000.0,181.0,25.0,-9.47295091387,-0.278616203349,-0.0523367453805,object_sharpeningsteel.png,126.0,348.0,0.0,0.0,0.0,__dummy__PP12.asc__,0.0,0.194926019333,0.0
270.583175318,1.0,control,0.0,garage,no,False,False,compatible,('handle_right',,2.0,0.0,85.0,150.0,1398.0,343.0,004A,undefined,PP12.asc,overlap,right,417.393056196,black,32.0,D,control,25.0,50.0,4000.0,50.0,50.0,0.0,screwdriver,False,0.0,5.0,asymm_garage_screwdriver,5.0,2.0,right,1841143.0,-1000.0,-1000.0,-1000.0,-1000.0,-1000.0,-1000.0,-1000.0,-1000.0,34.0,1840755.0,536.9,211.7,1840721.0,157.824839617,511.7,367.5,8.0,1840976.0,538.3,203.8,1840968.0,12.2539789456,532.9,214.8,-1000.0,-1000.0,-1000.0,-1000.0,-1000.0,-1000.0,-1000.0,-1000.0,-1000.0,-1000.0,-1000.0,-1000.0,-1000.0,-1000.0,-1000.0,-1000.0,-1000.0,-1000.0,-1000.0,-1000.0,-1000.0,-1000.0,-1000.0,-1000.0,-1000.0,-1000.0,-1000.0,-1000.0,-1000.0,-1000.0,-1000.0,-1000.0,-1000.0,-1000.0,-1000.0,-1000.0,-1000.0,-1000.0,-1000.0,-1000.0,-1000.0,-1000.0,-1000.0,-1000.0,-1000.0,-1000.0,-1000.0,-1000.0,-1000.0,-1000.0,-1000.0,-1000.0,-1000.0,-1000.0,-1000.0,-1000.0,2.0,3.0,yes,180.0,240.0,1840525.0,even,asymm,1839125.0,76.0,76.0,upper,205.0,6.0,0.0,46.3571312645,0.0,205.0,right,screwdriver,object,no,24.9,-172.3,24.9,-172.3,0.146470588235,-1.3625,24.9,-172.3,0.0555742524225,26.3,-180.2,26.3,-180.2,0.154705882353,-1.03333333333,26.3,-180.2,0.0638095465402,-1000.0,-1000.0,-1000.0,-1000.0,-1000.0,-1000.0,-1000.0,-1000.0,-1000.0,-1000.0,-1000.0,-1000.0,-1000.0,-1000.0,-1000.0,-1000.0,-1000.0,-1000.0,-1000.0,-1000.0,-1000.0,-1000.0,-1000.0,-1000.0,-1000.0,-1000.0,-1000.0,170.0,24.0,15.4523770882,0.454481679064,0.0908963358127,object_screwdriver.png,196.0,443.0,0.0,0.0,0.0,__dummy__PP12.asc__,0.0,0.0550696037239,60.0
153.060237351,1.0,control,0.0,garage,no,False,False,compatible,('handle_right',,2.0,0.0,85.0,150.0,533.0,357.0,004A,undefined,PP12.asc,zero,right,426.173229864,black,32.0,D,control,25.0,50.0,4000.0,50.0,50.0,0.0,hammer,False,0.0,5.0,asymm_garage_hammer,5.0,2.0,right,1883836.0,-1000.0,-1000.0,-1000.0,-1000.0,-1000.0,-1000.0,-1000.0,-1000.0,45.0,1883499.0,485.4,550.1,1883454.0,170.836793461,519.0,382.6,15.0,1883712.0,460.9,592.8,1883697.0,29.5574017803,481.9,572.0,-1000.0,-1000.0,-1000.0,-1000.0,-1000.0,-1000.0,-1000.0,-1000.0,-1000.0,-1000.0,-1000.0,-1000.0,-1000.0,-1000.0,-1000.0,-1000.0,-1000.0,-1000.0,-1000.0,-1000.0,-1000.0,-1000.0,-1000.0,-1000.0,-1000.0,-1000.0,-1000.0,-1000.0,-1000.0,-1000.0,-1000.0,-1000.0,-1000.0,-1000.0,-1000.0,-1000.0,-1000.0,-1000.0,-1000.0,-1000.0,-1000.0,-1000.0,-1000.0,-1000.0,-1000.0,-1000.0,-1000.0,-1000.0,-1000.0,-1000.0,-1000.0,-1000.0,-1000.0,-1000.0,-1000.0,-1000.0,2.0,3.0,yes,180.0,240.0,1883320.0,even,asymm,1882780.0,88.0,88.0,lower,-228.0,-7.0,180.0,-49.0924872956,0.0,-228.0,right,hammer,object,no,26.6,-166.1,-26.6,-166.1,-0.161212121212,-0.75487804878,-26.6,166.1,-0.0620353792008,51.1,-208.8,-51.1,-208.8,-0.309696969697,-0.234146341463,-51.1,208.8,-0.210520227686,-1000.0,-1000.0,-1000.0,-1000.0,-1000.0,-1000.0,-1000.0,-1000.0,-1000.0,-1000.0,-1000.0,-1000.0,-1000.0,-1000.0,-1000.0,-1000.0,-1000.0,-1000.0,-1000.0,-1000.0,-1000.0,-1000.0,-1000.0,-1000.0,-1000.0,-1000.0,-1000.0,165.0,82.0,-16.3641624319,-0.481298895055,-0.0991767420113,object_hammer.png,134.0,377.0,0.0,0.0,0.0,__dummy__PP12.asc__,0.0,-0.0625400278994,0.0
194.327472126,1.0,control,0.0,kitchen,no,False,False,compatible,('handle_left',,1.0,0.0,85.0,150.0,565.0,401.0,004A,undefined,PP12.asc,overlap,left,461.241478756,black,32.0,B,control,25.0,50.0,4000.0,50.0,50.0,0.0,spoon2,False,0.0,6.0,asymm_kitchen_spoon2,6.0,1.0,left,1890885.0,-1000.0,-1000.0,-1000.0,-1000.0,-1000.0,-1000.0,-1000.0,-1000.0,33.0,1890456.0,495.5,570.8,1890423.0,187.192975296,516.6,384.8,23.0,1890655.0,566.6,574.6,1890632.0,68.6618525821,498.7,564.4,-1000.0,-1000.0,-1000.0,-1000.0,-1000.0,-1000.0,-1000.0,-1000.0,-1000.0,-1000.0,-1000.0,-1000.0,-1000.0,-1000.0,-1000.0,-1000.0,-1000.0,-1000.0,-1000.0,-1000.0,-1000.0,-1000.0,-1000.0,-1000.0,-1000.0,-1000.0,-1000.0,-1000.0,-1000.0,-1000.0,-1000.0,-1000.0,-1000.0,-1000.0,-1000.0,-1000.0,-1000.0,-1000.0,-1000.0,-1000.0,-1000.0,-1000.0,-1000.0,-1000.0,-1000.0,-1000.0,-1000.0,-1000.0,-1000.0,-1000.0,-1000.0,-1000.0,-1000.0,-1000.0,-1000.0,-1000.0,2.0,3.0,yes,180.0,240.0,1890281.0,even,asymm,1889711.0,90.0,90.0,lower,-224.0,-7.0,180.0,12.3796717148,0.0,-224.0,left,spoon2,object,no,16.5,-186.8,16.5,-186.8,0.09375,-0.845454545455,-16.5,186.8,0.0703036520553,-54.6,-190.6,-54.6,-190.6,-0.310227272727,-0.759090909091,54.6,190.6,-0.333673620672,-1000.0,-1000.0,-1000.0,-1000.0,-1000.0,-1000.0,-1000.0,-1000.0,-1000.0,-1000.0,-1000.0,-1000.0,-1000.0,-1000.0,-1000.0,-1000.0,-1000.0,-1000.0,-1000.0,-1000.0,-1000.0,-1000.0,-1000.0,-1000.0,-1000.0,-1000.0,-1000.0,176.0,44.0,4.12655723827,0.121369330537,0.0234463479447,object_spoon2.png,142.0,351.0,0.0,0.0,0.0,__dummy__PP12.asc__,0.0,0.0697990033567,10.0
364.30931579,1.0,control,0.0,garage,no,False,False,incompatible,('handle_left',,2.0,0.0,85.0,150.0,388.0,289.0,004A,undefined,PP12.asc,zero,left,270.641296419,black,32.0,B,control,25.0,50.0,4000.0,50.0,50.0,0.0,chisel,False,0.0,5.0,asymm_garage_chisel,5.0,2.0,right,1902272.0,-1000.0,-1000.0,-1000.0,-1000.0,-1000.0,-1000.0,-1000.0,-1000.0,46.0,1901800.0,482.8,566.9,1901754.0,187.331924668,524.2,384.2,-1000.0,-1000.0,-1000.0,-1000.0,-1000.0,-1000.0,-1000.0,-1000.0,-1000.0,-1000.0,-1000.0,-1000.0,-1000.0,-1000.0,-1000.0,-1000.0,-1000.0,-1000.0,-1000.0,-1000.0,-1000.0,-1000.0,-1000.0,-1000.0,-1000.0,-1000.0,-1000.0,-1000.0,-1000.0,-1000.0,-1000.0,-1000.0,-1000.0,-1000.0,-1000.0,-1000.0,-1000.0,-1000.0,-1000.0,-1000.0,-1000.0,-1000.0,-1000.0,-1000.0,-1000.0,-1000.0,-1000.0,-1000.0,-1000.0,-1000.0,-1000.0,-1000.0,-1000.0,-1000.0,-1000.0,-1000.0,-1000.0,-1000.0,-1000.0,-1000.0,-1000.0,-1000.0,-1000.0,-1000.0,1.0,3.0,yes,180.0,240.0,1901612.0,even,asymm,1901222.0,93.0,93.0,lower,-213.0,-7.0,180.0,-25.8224210823,0.0,-213.0,left,chisel,object,no,29.2,-182.9,29.2,-182.9,0.165909090909,-1.03793103448,-29.2,182.9,0.214815191444,-1000.0,-1000.0,-1000.0,-1000.0,-1000.0,-1000.0,-1000.0,-1000.0,-1000.0,-1000.0,-1000.0,-1000.0,-1000.0,-1000.0,-1000.0,-1000.0,-1000.0,-1000.0,-1000.0,-1000.0,-1000.0,-1000.0,-1000.0,-1000.0,-1000.0,-1000.0,-1000.0,-1000.0,-1000.0,-1000.0,-1000.0,-1000.0,-1000.0,-1000.0,-1000.0,-1000.0,176.0,29.0,-8.6074736941,-0.253160991003,-0.0489061005347,object_chisel.png,142.0,0.0,0.0,0.0,0.0,__dummy__PP12.asc__,0.0,0.214310542745,10.0
316.430010774,1.0,control,1.0,garage,no,False,False,compatible,('handle_right',,2.0,0.0,85.0,150.0,751.0,609.0,004A,undefined,PP12.asc,overlap,right,364.296245185,black,32.0,A,control,25.0,50.0,4000.0,50.0,50.0,0.0,paintbrush,False,0.0,7.0,asymm_garage_paintbrush,1.0,2.0,right,1989856.0,-1000.0,-1000.0,-1000.0,-1000.0,-1000.0,-1000.0,-1000.0,-1000.0,35.0,1989194.0,489.6,558.2,1989159.0,199.663241484,525.0,361.7,20.0,1989424.0,461.6,589.0,1989404.0,41.7538022221,492.3,560.7,-1000.0,-1000.0,-1000.0,-1000.0,-1000.0,-1000.0,-1000.0,-1000.0,-1000.0,-1000.0,-1000.0,-1000.0,-1000.0,-1000.0,-1000.0,-1000.0,-1000.0,-1000.0,-1000.0,-1000.0,-1000.0,-1000.0,-1000.0,-1000.0,-1000.0,-1000.0,-1000.0,-1000.0,-1000.0,-1000.0,-1000.0,-1000.0,-1000.0,-1000.0,-1000.0,-1000.0,-1000.0,-1000.0,-1000.0,-1000.0,-1000.0,-1000.0,-1000.0,-1000.0,-1000.0,-1000.0,-1000.0,-1000.0,-1000.0,-1000.0,-1000.0,-1000.0,-1000.0,-1000.0,-1000.0,-1000.0,2.0,3.0,yes,180.0,240.0,1988922.0,even,asymm,1988161.0,98.0,98.0,lower,-238.0,-7.0,180.0,-30.6897921115,0.0,-238.0,right,paintbrush,object,no,22.4,-174.2,-22.4,-174.2,-0.127272727273,-1.82285714286,-22.4,174.2,-0.0691481210009,50.4,-205.0,-50.4,-205.0,-0.286363636364,-0.942857142857,-50.4,205.0,-0.228239030092,-1000.0,-1000.0,-1000.0,-1000.0,-1000.0,-1000.0,-1000.0,-1000.0,-1000.0,-1000.0,-1000.0,-1000.0,-1000.0,-1000.0,-1000.0,-1000.0,-1000.0,-1000.0,-1000.0,-1000.0,-1000.0,-1000.0,-1000.0,-1000.0,-1000.0,-1000.0,-1000.0,176.0,35.0,-10.2299307038,-0.300880314819,-0.0581246062718,object_paintbrush.png,237.0,482.0,0.0,0.0,0.0,__dummy__PP12.asc__,0.0,-0.0696527696995,90.0
245.658227494,1.0,control,1.0,kitchen,no,False,False,incompatible,('handle_right',,1.0,0.0,85.0,150.0,501.0,325.0,004A,undefined,PP12.asc,zero,right,375.557003702,black,32.0,A,control,25.0,50.0,4000.0,50.0,50.0,0.0,washingbrush,False,0.0,6.0,asymm_kitchen_washingbrush,1.0,1.0,left,2051294.0,-1000.0,-1000.0,-1000.0,-1000.0,-1000.0,-1000.0,-1000.0,-1000.0,34.0,2050889.0,504.2,203.4,2050855.0,168.774524144,527.2,370.6,17.0,2051057.0,452.6,187.1,2051040.0,46.8328944226,496.0,204.7,-1000.0,-1000.0,-1000.0,-1000.0,-1000.0,-1000.0,-1000.0,-1000.0,-1000.0,-1000.0,-1000.0,-1000.0,-1000.0,-1000.0,-1000.0,-1000.0,-1000.0,-1000.0,-1000.0,-1000.0,-1000.0,-1000.0,-1000.0,-1000.0,-1000.0,-1000.0,-1000.0,-1000.0,-1000.0,-1000.0,-1000.0,-1000.0,-1000.0,-1000.0,-1000.0,-1000.0,-1000.0,-1000.0,-1000.0,-1000.0,-1000.0,-1000.0,-1000.0,-1000.0,-1000.0,-1000.0,-1000.0,-1000.0,-1000.0,-1000.0,-1000.0,-1000.0,-1000.0,-1000.0,-1000.0,-1000.0,2.0,3.0,yes,180.0,240.0,2050718.0,even,asymm,2050208.0,104.0,104.0,upper,227.0,6.0,0.0,-34.2563568121,0.0,227.0,right,washingbrush,object,no,-7.8,-180.6,-7.8,-180.6,-0.0443181818182,-1.05454545455,-7.8,-180.6,0.0205612818411,-59.4,-196.9,-59.4,-196.9,-0.3375,-0.684090909091,-59.4,-196.9,-0.272620536341,-1000.0,-1000.0,-1000.0,-1000.0,-1000.0,-1000.0,-1000.0,-1000.0,-1000.0,-1000.0,-1000.0,-1000.0,-1000.0,-1000.0,-1000.0,-1000.0,-1000.0,-1000.0,-1000.0,-1000.0,-1000.0,-1000.0,-1000.0,-1000.0,-1000.0,-1000.0,-1000.0,176.0,44.0,-11.418785604,-0.335846635413,-0.0648794636593,object_washingbrush.png,137.0,322.0,0.0,0.0,0.0,__dummy__PP12.asc__,0.0,0.0200566331425,0.0
327.007466532,1.0,control,1.0,garage,no,False,False,incompatible,('handle_left',,2.0,0.0,85.0,150.0,387.0,298.0,004A,undefined,PP12.asc,overlap,left,274.845991414,black,32.0,E,control,25.0,50.0,4000.0,50.0,50.0,0.0,mallet,False,0.0,7.0,asymm_garage_mallet,2.0,2.0,right,2273246.0,-1000.0,-1000.0,-1000.0,-1000.0,-1000.0,-1000.0,-1000.0,-1000.0,33.0,2272803.0,510.8,613.2,2272770.0,214.905676984,501.4,398.5,17.0,2273021.0,558.7,613.6,2273004.0,45.300441499,513.4,613.4,-1000.0,-1000.0,-1000.0,-1000.0,-1000.0,-1000.0,-1000.0,-1000.0,-1000.0,-1000.0,-1000.0,-1000.0,-1000.0,-1000.0,-1000.0,-1000.0,-1000.0,-1000.0,-1000.0,-1000.0,-1000.0,-1000.0,-1000.0,-1000.0,-1000.0,-1000.0,-1000.0,-1000.0,-1000.0,-1000.0,-1000.0,-1000.0,-1000.0,-1000.0,-1000.0,-1000.0,-1000.0,-1000.0,-1000.0,-1000.0,-1000.0,-1000.0,-1000.0,-1000.0,-1000.0,-1000.0,-1000.0,-1000.0,-1000.0,-1000.0,-1000.0,-1000.0,-1000.0,-1000.0,-1000.0,-1000.0,2.0,3.0,yes,180.0,240.0,2272613.0,even,asymm,2272223.0,118.0,118.0,lower,-230.0,-7.0,180.0,38.1359159379,0.0,-230.0,left,mallet,object,no,1.2,-229.2,1.2,-229.2,0.00740740740741,-0.00987654320988,-1.2,229.2,-0.0710615554278,-46.7,-229.6,-46.7,-229.6,-0.288271604938,-0.00493827160494,46.7,229.6,-0.366740567773,-1000.0,-1000.0,-1000.0,-1000.0,-1000.0,-1000.0,-1000.0,-1000.0,-1000.0,-1000.0,-1000.0,-1000.0,-1000.0,-1000.0,-1000.0,-1000.0,-1000.0,-1000.0,-1000.0,-1000.0,-1000.0,-1000.0,-1000.0,-1000.0,-1000.0,-1000.0,-1000.0,162.0,81.0,12.7119719793,0.373881528803,0.0784689628352,object_mallet.png,157.0,391.0,0.0,0.0,0.0,__dummy__PP12.asc__,0.0,-0.0715662041264,30.0
332.791120055,1.0,control,1.0,kitchen,no,False,False,compatible,('handle_left',,1.0,0.0,85.0,150.0,512.0,275.0,004A,undefined,PP12.asc,zero,left,389.420708536,black,32.0,E,control,25.0,50.0,4000.0,50.0,50.0,0.0,fork,False,0.0,8.0,asymm_kitchen_fork,3.0,1.0,left,2348456.0,-1000.0,-1000.0,-1000.0,-1000.0,-1000.0,-1000.0,-1000.0,-1000.0,45.0,2348025.0,497.9,633.6,2347980.0,228.503150963,496.7,405.1,24.0,2348163.0,568.2,596.2,2348139.0,78.8218878231,501.5,638.2,-1000.0,-1000.0,-1000.0,-1000.0,-1000.0,-1000.0,-1000.0,-1000.0,-1000.0,-1000.0,-1000.0,-1000.0,-1000.0,-1000.0,-1000.0,-1000.0,-1000.0,-1000.0,-1000.0,-1000.0,-1000.0,-1000.0,-1000.0,-1000.0,-1000.0,-1000.0,-1000.0,-1000.0,-1000.0,-1000.0,-1000.0,-1000.0,-1000.0,-1000.0,-1000.0,-1000.0,-1000.0,-1000.0,-1000.0,-1000.0,-1000.0,-1000.0,-1000.0,-1000.0,-1000.0,-1000.0,-1000.0,-1000.0,-1000.0,-1000.0,-1000.0,-1000.0,-1000.0,-1000.0,-1000.0,-1000.0,2.0,3.0,yes,180.0,240.0,2347841.0,even,asymm,2347321.0,128.0,128.0,lower,-233.0,-7.0,180.0,31.0319959052,0.0,-233.0,left,fork,object,no,14.1,-249.6,14.1,-249.6,0.0754010695187,0.448648648649,-14.1,249.6,0.0200855687964,-56.2,-212.2,-56.2,-212.2,-0.300534759358,-0.562162162162,56.2,212.2,-0.355850260081,-1000.0,-1000.0,-1000.0,-1000.0,-1000.0,-1000.0,-1000.0,-1000.0,-1000.0,-1000.0,-1000.0,-1000.0,-1000.0,-1000.0,-1000.0,-1000.0,-1000.0,-1000.0,-1000.0,-1000.0,-1000.0,-1000.0,-1000.0,-1000.0,-1000.0,-1000.0,-1000.0,187.0,37.0,10.3439986351,0.304235253973,0.0553155007223,object_fork.png,139.0,298.0,0.0,0.0,0.0,__dummy__PP12.asc__,0.0,0.0195809200978,0.0
457.744455198,1.0,control,1.0,kitchen,no,False,False,incompatible,('handle_right',,1.0,0.0,85.0,150.0,479.0,306.0,004A,undefined,PP12.asc,overlap,right,356.733289434,black,32.0,A,control,25.0,50.0,4000.0,50.0,50.0,0.0,knife,False,0.0,7.0,asymm_kitchen_knife,2.0,1.0,left,2517709.0,-1000.0,-1000.0,-1000.0,-1000.0,-1000.0,-1000.0,-1000.0,-1000.0,30.0,2517123.0,506.3,208.4,2517093.0,153.018822372,503.9,361.4,18.0,2517319.0,537.5,181.8,2517301.0,47.0287146327,502.4,213.1,25.0,2517480.0,451.3,196.9,2517455.0,87.7489601078,538.5,187.1,-1000.0,-1000.0,-1000.0,-1000.0,-1000.0,-1000.0,-1000.0,-1000.0,-1000.0,-1000.0,-1000.0,-1000.0,-1000.0,-1000.0,-1000.0,-1000.0,-1000.0,-1000.0,-1000.0,-1000.0,-1000.0,-1000.0,-1000.0,-1000.0,-1000.0,-1000.0,-1000.0,-1000.0,-1000.0,-1000.0,-1000.0,-1000.0,-1000.0,-1000.0,-1000.0,-1000.0,-1000.0,-1000.0,-1000.0,-1000.0,-1000.0,-1000.0,-1000.0,-1000.0,-1000.0,-1000.0,-1000.0,-1000.0,3.0,3.0,yes,180.0,240.0,2516940.0,even,asymm,2516450.0,133.0,133.0,upper,204.0,6.0,0.0,-1.97018009304,0.0,204.0,right,knife,object,no,-5.7,-175.6,-5.7,-175.6,-0.0323863636364,-1.29090909091,-5.7,-175.6,-0.028654961945,25.5,-202.2,25.5,-202.2,0.144886363636,-0.0818181818182,25.5,-202.2,0.148617765328,-60.7,-187.1,-60.7,-187.1,-0.344886363636,-0.768181818182,-60.7,-187.1,-0.341154961945,-1000.0,-1000.0,-1000.0,-1000.0,-1000.0,-1000.0,-1000.0,-1000.0,-1000.0,-1000.0,-1000.0,-1000.0,-1000.0,-1000.0,-1000.0,-1000.0,-1000.0,-1000.0,176.0,22.0,-0.65672669768,-0.0193154911082,-0.00373140169136,object_knife.png,153.0,361.0,515.0,0.0,0.0,__dummy__PP12.asc__,0.0,-0.0291596106436,20.0
503.592922125,1.0,control,1.0,garage,no,False,False,compatible,('handle_right',,2.0,0.0,85.0,150.0,544.0,309.0,004A,undefined,PP12.asc,overlap,right,446.787501932,black,32.0,A,control,25.0,50.0,4000.0,50.0,50.0,0.0,hammer,False,0.0,7.0,asymm_garage_hammer,2.0,2.0,right,2525318.0,-1000.0,-1000.0,-1000.0,-1000.0,-1000.0,-1000.0,-1000.0,-1000.0,35.0,2524693.0,471.6,589.5,2524658.0,212.384980637,498.3,378.8,-1000.0,-1000.0,-1000.0,-1000.0,-1000.0,-1000.0,-1000.0,-1000.0,-1000.0,-1000.0,-1000.0,-1000.0,-1000.0,-1000.0,-1000.0,-1000.0,-1000.0,-1000.0,-1000.0,-1000.0,-1000.0,-1000.0,-1000.0,-1000.0,-1000.0,-1000.0,-1000.0,-1000.0,-1000.0,-1000.0,-1000.0,-1000.0,-1000.0,-1000.0,-1000.0,-1000.0,-1000.0,-1000.0,-1000.0,-1000.0,-1000.0,-1000.0,-1000.0,-1000.0,-1000.0,-1000.0,-1000.0,-1000.0,-1000.0,-1000.0,-1000.0,-1000.0,-1000.0,-1000.0,-1000.0,-1000.0,-1000.0,-1000.0,-1000.0,-1000.0,-1000.0,-1000.0,-1000.0,-1000.0,1.0,3.0,yes,180.0,240.0,2524501.0,even,asymm,2523951.0,135.0,135.0,lower,-213.0,-7.0,180.0,-49.0924872956,0.0,-213.0,right,hammer,object,no,40.4,-205.5,-40.4,-205.5,-0.244848484848,-0.0914634146341,-40.4,205.5,-0.145671742837,-1000.0,-1000.0,-1000.0,-1000.0,-1000.0,-1000.0,-1000.0,-1000.0,-1000.0,-1000.0,-1000.0,-1000.0,-1000.0,-1000.0,-1000.0,-1000.0,-1000.0,-1000.0,-1000.0,-1000.0,-1000.0,-1000.0,-1000.0,-1000.0,-1000.0,-1000.0,-1000.0,-1000.0,-1000.0,-1000.0,-1000.0,-1000.0,-1000.0,-1000.0,-1000.0,-1000.0,165.0,82.0,-16.3641624319,-0.481298895055,-0.0991767420113,object_hammer.png,157.0,0.0,0.0,0.0,0.0,__dummy__PP12.asc__,0.0,-0.146176391536,30.0
936.202161645,1.0,control,1.0,garage,no,False,False,compatible,('handle_right',,2.0,0.0,85.0,150.0,467.0,278.0,004A,undefined,PP12.asc,zero,right,353.066280786,black,32.0,A,control,25.0,50.0,4000.0,50.0,50.0,0.0,wrench,False,0.0,9.0,asymm_garage_wrench,3.0,2.0,right,2535730.0,-1000.0,-1000.0,-1000.0,-1000.0,-1000.0,-1000.0,-1000.0,-1000.0,45.0,2534684.0,488.0,583.0,2534639.0,214.263809357,508.3,369.7,19.0,2534883.0,439.8,595.6,2534864.0,50.3289181286,490.0,592.0,-1000.0,-1000.0,-1000.0,-1000.0,-1000.0,-1000.0,-1000.0,-1000.0,-1000.0,-1000.0,-1000.0,-1000.0,-1000.0,-1000.0,-1000.0,-1000.0,-1000.0,-1000.0,-1000.0,-1000.0,-1000.0,-1000.0,-1000.0,-1000.0,-1000.0,-1000.0,-1000.0,-1000.0,-1000.0,-1000.0,-1000.0,-1000.0,-1000.0,-1000.0,-1000.0,-1000.0,-1000.0,-1000.0,-1000.0,-1000.0,-1000.0,-1000.0,-1000.0,-1000.0,-1000.0,-1000.0,-1000.0,-1000.0,-1000.0,-1000.0,-1000.0,-1000.0,-1000.0,-1000.0,-1000.0,-1000.0,2.0,3.0,yes,180.0,240.0,2534512.0,even,asymm,2534042.0,137.0,137.0,lower,-233.0,-7.0,180.0,-22.3837053908,0.0,-233.0,right,wrench,object,no,24.0,-199.0,-24.0,-199.0,-0.136363636364,-0.971428571429,-24.0,199.0,-0.0939702549417,72.2,-211.6,-72.2,-211.6,-0.410227272727,-0.611428571429,-72.2,211.6,-0.367833891305,-1000.0,-1000.0,-1000.0,-1000.0,-1000.0,-1000.0,-1000.0,-1000.0,-1000.0,-1000.0,-1000.0,-1000.0,-1000.0,-1000.0,-1000.0,-1000.0,-1000.0,-1000.0,-1000.0,-1000.0,-1000.0,-1000.0,-1000.0,-1000.0,-1000.0,-1000.0,-1000.0,176.0,35.0,-7.46123513027,-0.219448092067,-0.042393381422,object_wrench.png,127.0,352.0,0.0,0.0,0.0,__dummy__PP12.asc__,0.0,-0.0944749036403,0.0
438.182381477,1.0,control,1.0,kitchen,no,False,False,compatible,('handle_left',,1.0,0.0,85.0,150.0,664.0,352.0,004A,undefined,PP12.asc,overlap,left,435.531835392,black,32.0,E,control,25.0,50.0,4000.0,50.0,50.0,0.0,peeler,False,0.0,8.0,asymm_kitchen_peeler,2.0,1.0,left,2551209.0,-1000.0,-1000.0,-1000.0,-1000.0,-1000.0,-1000.0,-1000.0,-1000.0,31.0,2550649.0,503.1,227.8,2550618.0,142.243066615,499.6,370.0,14.0,2550813.0,525.4,213.1,2550799.0,31.8477628728,497.2,227.9,-1000.0,-1000.0,-1000.0,-1000.0,-1000.0,-1000.0,-1000.0,-1000.0,-1000.0,-1000.0,-1000.0,-1000.0,-1000.0,-1000.0,-1000.0,-1000.0,-1000.0,-1000.0,-1000.0,-1000.0,-1000.0,-1000.0,-1000.0,-1000.0,-1000.0,-1000.0,-1000.0,-1000.0,-1000.0,-1000.0,-1000.0,-1000.0,-1000.0,-1000.0,-1000.0,-1000.0,-1000.0,-1000.0,-1000.0,-1000.0,-1000.0,-1000.0,-1000.0,-1000.0,-1000.0,-1000.0,-1000.0,-1000.0,-1000.0,-1000.0,-1000.0,-1000.0,-1000.0,-1000.0,-1000.0,-1000.0,2.0,3.0,yes,180.0,240.0,2550414.0,even,asymm,2549743.0,141.0,141.0,upper,189.0,5.0,0.0,0.384262651214,0.0,189.0,left,peeler,object,no,-8.9,-156.2,8.9,-156.2,0.0618055555556,-1.36666666667,-8.9,-156.2,0.0609160586777,13.4,-170.9,-13.4,-170.9,-0.0930555555556,-0.754166666667,13.4,-170.9,-0.0939450524334,-1000.0,-1000.0,-1000.0,-1000.0,-1000.0,-1000.0,-1000.0,-1000.0,-1000.0,-1000.0,-1000.0,-1000.0,-1000.0,-1000.0,-1000.0,-1000.0,-1000.0,-1000.0,-1000.0,-1000.0,-1000.0,-1000.0,-1000.0,-1000.0,-1000.0,-1000.0,-1000.0,144.0,24.0,0.128087550405,0.00376728089425,0.00088949687781,object_peeler.png,204.0,385.0,0.0,0.0,0.0,__dummy__PP12.asc__,0.0,0.0604114099791,70.0
365.991356804,1.0,control,1.0,kitchen,no,False,False,compatible,('handle_left',,1.0,0.0,85.0,150.0,520.0,308.0,004A,undefined,PP12.asc,zero,left,414.154182153,black,32.0,E,control,25.0,50.0,4000.0,50.0,50.0,0.0,spoon,False,0.0,8.0,asymm_kitchen_spoon,3.0,1.0,left,2555395.0,-1000.0,-1000.0,-1000.0,-1000.0,-1000.0,-1000.0,-1000.0,-1000.0,32.0,2554910.0,515.1,208.4,2554878.0,165.008878549,506.8,373.2,19.0,2555054.0,558.6,195.9,2555035.0,51.0851250366,511.1,214.7,-1000.0,-1000.0,-1000.0,-1000.0,-1000.0,-1000.0,-1000.0,-1000.0,-1000.0,-1000.0,-1000.0,-1000.0,-1000.0,-1000.0,-1000.0,-1000.0,-1000.0,-1000.0,-1000.0,-1000.0,-1000.0,-1000.0,-1000.0,-1000.0,-1000.0,-1000.0,-1000.0,-1000.0,-1000.0,-1000.0,-1000.0,-1000.0,-1000.0,-1000.0,-1000.0,-1000.0,-1000.0,-1000.0,-1000.0,-1000.0,-1000.0,-1000.0,-1000.0,-1000.0,-1000.0,-1000.0,-1000.0,-1000.0,-1000.0,-1000.0,-1000.0,-1000.0,-1000.0,-1000.0,-1000.0,-1000.0,2.0,3.0,yes,180.0,240.0,2554714.0,even,asymm,2554184.0,142.0,142.0,upper,205.0,6.0,0.0,14.4180022509,0.0,205.0,left,spoon,object,no,3.1,-175.6,-3.1,-175.6,-0.016847826087,-0.98,3.1,-175.6,-0.0429673953821,46.6,-188.1,-46.6,-188.1,-0.253260869565,-0.563333333333,46.6,-188.1,-0.27938043886,-1000.0,-1000.0,-1000.0,-1000.0,-1000.0,-1000.0,-1000.0,-1000.0,-1000.0,-1000.0,-1000.0,-1000.0,-1000.0,-1000.0,-1000.0,-1000.0,-1000.0,-1000.0,-1000.0,-1000.0,-1000.0,-1000.0,-1000.0,-1000.0,-1000.0,-1000.0,-1000.0,184.0,30.0,4.8060007503,0.141352963244,0.0261195692951,object_spoon.png,164.0,321.0,0.0,0.0,0.0,__dummy__PP12.asc__,0.0,-0.0434720440807,40.0
212.50922782,1.0,control,1.0,garage,no,False,False,incompatible,('handle_left',,2.0,0.0,85.0,150.0,604.0,344.0,004A,undefined,PP12.asc,overlap,left,394.490147983,black,32.0,E,control,25.0,50.0,4000.0,50.0,50.0,0.0,chisel2,False,0.0,8.0,asymm_garage_chisel2,3.0,2.0,right,2570350.0,-1000.0,-1000.0,-1000.0,-1000.0,-1000.0,-1000.0,-1000.0,-1000.0,36.0,2570019.0,531.8,187.1,2569983.0,177.121455504,511.9,363.1,-1000.0,-1000.0,-1000.0,-1000.0,-1000.0,-1000.0,-1000.0,-1000.0,-1000.0,-1000.0,-1000.0,-1000.0,-1000.0,-1000.0,-1000.0,-1000.0,-1000.0,-1000.0,-1000.0,-1000.0,-1000.0,-1000.0,-1000.0,-1000.0,-1000.0,-1000.0,-1000.0,-1000.0,-1000.0,-1000.0,-1000.0,-1000.0,-1000.0,-1000.0,-1000.0,-1000.0,-1000.0,-1000.0,-1000.0,-1000.0,-1000.0,-1000.0,-1000.0,-1000.0,-1000.0,-1000.0,-1000.0,-1000.0,-1000.0,-1000.0,-1000.0,-1000.0,-1000.0,-1000.0,-1000.0,-1000.0,-1000.0,-1000.0,-1000.0,-1000.0,-1000.0,-1000.0,-1000.0,-1000.0,1.0,3.0,yes,180.0,240.0,2569786.0,even,asymm,2569176.0,146.0,146.0,upper,224.0,6.0,0.0,3.84729150124,0.0,224.0,left,chisel2,object,no,19.8,-196.9,-19.8,-196.9,-0.1125,-0.774285714286,19.8,-196.9,-0.119786536934,-1000.0,-1000.0,-1000.0,-1000.0,-1000.0,-1000.0,-1000.0,-1000.0,-1000.0,-1000.0,-1000.0,-1000.0,-1000.0,-1000.0,-1000.0,-1000.0,-1000.0,-1000.0,-1000.0,-1000.0,-1000.0,-1000.0,-1000.0,-1000.0,-1000.0,-1000.0,-1000.0,-1000.0,-1000.0,-1000.0,-1000.0,-1000.0,-1000.0,-1000.0,-1000.0,-1000.0,176.0,35.0,1.28243050041,0.0377185441298,0.00728653693417,object_chisel2.png,197.0,0.0,0.0,0.0,0.0,__dummy__PP12.asc__,0.0,-0.120291185633,60.0
602.322229268,1.0,control,1.0,garage,no,False,False,compatible,('handle_right',,2.0,0.0,85.0,150.0,448.0,362.0,004A,undefined,PP12.asc,zero,right,331.736702896,black,32.0,A,control,25.0,50.0,4000.0,50.0,50.0,0.0,mallet,False,0.0,9.0,asymm_garage_mallet,4.0,2.0,right,2600160.0,-1000.0,-1000.0,-1000.0,-1000.0,-1000.0,-1000.0,-1000.0,-1000.0,48.0,2599454.0,501.8,600.6,2599406.0,228.792351271,508.3,371.9,19.0,2599614.0,459.7,580.9,2599595.0,50.4476956857,496.6,615.3,-1000.0,-1000.0,-1000.0,-1000.0,-1000.0,-1000.0,-1000.0,-1000.0,-1000.0,-1000.0,-1000.0,-1000.0,-1000.0,-1000.0,-1000.0,-1000.0,-1000.0,-1000.0,-1000.0,-1000.0,-1000.0,-1000.0,-1000.0,-1000.0,-1000.0,-1000.0,-1000.0,-1000.0,-1000.0,-1000.0,-1000.0,-1000.0,-1000.0,-1000.0,-1000.0,-1000.0,-1000.0,-1000.0,-1000.0,-1000.0,-1000.0,-1000.0,-1000.0,-1000.0,-1000.0,-1000.0,-1000.0,-1000.0,-1000.0,-1000.0,-1000.0,-1000.0,-1000.0,-1000.0,-1000.0,-1000.0,2.0,3.0,yes,180.0,240.0,2599189.0,even,asymm,2598739.0,154.0,154.0,lower,-217.0,-7.0,180.0,-38.1359159379,0.0,-217.0,right,mallet,object,no,10.2,-216.6,-10.2,-216.6,-0.062962962963,-0.00493827160494,-10.2,216.6,0.0155059998722,52.3,-196.9,-52.3,-196.9,-0.322839506173,-0.248148148148,-52.3,196.9,-0.244370543338,-1000.0,-1000.0,-1000.0,-1000.0,-1000.0,-1000.0,-1000.0,-1000.0,-1000.0,-1000.0,-1000.0,-1000.0,-1000.0,-1000.0,-1000.0,-1000.0,-1000.0,-1000.0,-1000.0,-1000.0,-1000.0,-1000.0,-1000.0,-1000.0,-1000.0,-1000.0,-1000.0,162.0,81.0,-12.7119719793,-0.373881528803,-0.0784689628352,object_mallet.png,217.0,406.0,0.0,0.0,0.0,__dummy__PP12.asc__,0.0,0.0150013511736,80.0
511.895041334,1.0,control,1.0,garage,no,False,False,compatible,('handle_right',,2.0,0.0,85.0,150.0,3359.0,333.0,004A,undefined,PP12.asc,zero,right,423.881157987,black,32.0,A,control,25.0,50.0,4000.0,50.0,50.0,0.0,chisel,False,0.0,9.0,asymm_garage_chisel,4.0,2.0,right,2637523.0,-1000.0,-1000.0,-1000.0,-1000.0,-1000.0,-1000.0,-1000.0,-1000.0,39.0,2636901.0,485.4,531.5,2636862.0,166.380798171,501.5,365.9,10.0,2637115.0,469.3,556.2,2637105.0,20.2071769429,482.5,540.9,-1000.0,-1000.0,-1000.0,-1000.0,-1000.0,-1000.0,-1000.0,-1000.0,-1000.0,-1000.0,-1000.0,-1000.0,-1000.0,-1000.0,-1000.0,-1000.0,-1000.0,-1000.0,-1000.0,-1000.0,-1000.0,-1000.0,-1000.0,-1000.0,-1000.0,-1000.0,-1000.0,-1000.0,-1000.0,-1000.0,-1000.0,-1000.0,-1000.0,-1000.0,-1000.0,-1000.0,-1000.0,-1000.0,-1000.0,-1000.0,-1000.0,-1000.0,-1000.0,-1000.0,-1000.0,-1000.0,-1000.0,-1000.0,-1000.0,-1000.0,-1000.0,-1000.0,-1000.0,-1000.0,-1000.0,-1000.0,2.0,3.0,yes,180.0,240.0,2636673.0,even,asymm,2633303.0,160.0,160.0,lower,-191.0,-6.0,180.0,25.8224210823,0.0,-191.0,right,chisel,object,no,26.6,-147.5,-26.6,-147.5,-0.151136363636,-1.5,-26.6,147.5,-0.200042464171,42.7,-172.2,-42.7,-172.2,-0.242613636364,-0.648275862069,-42.7,172.2,-0.291519736898,-1000.0,-1000.0,-1000.0,-1000.0,-1000.0,-1000.0,-1000.0,-1000.0,-1000.0,-1000.0,-1000.0,-1000.0,-1000.0,-1000.0,-1000.0,-1000.0,-1000.0,-1000.0,-1000.0,-1000.0,-1000.0,-1000.0,-1000.0,-1000.0,-1000.0,-1000.0,-1000.0,176.0,29.0,8.6074736941,0.253160991003,0.0489061005347,object_chisel.png,189.0,432.0,0.0,0.0,0.0,__dummy__PP12.asc__,0.0,-0.20054711287,50.0
414.331615749,1.0,control,1.0,kitchen,no,False,False,incompatible,('handle_right',,1.0,0.0,85.0,150.0,542.0,295.0,004A,undefined,PP12.asc,zero,right,442.681310983,black,32.0,A,control,25.0,50.0,4000.0,50.0,50.0,0.0,fork,False,0.0,10.0,asymm_kitchen_fork,5.0,1.0,left,2665330.0,-1000.0,-1000.0,-1000.0,-1000.0,-1000.0,-1000.0,-1000.0,-1000.0,45.0,2664805.0,486.5,560.2,2664760.0,194.735615643,507.5,366.6,-1000.0,-1000.0,-1000.0,-1000.0,-1000.0,-1000.0,-1000.0,-1000.0,-1000.0,-1000.0,-1000.0,-1000.0,-1000.0,-1000.0,-1000.0,-1000.0,-1000.0,-1000.0,-1000.0,-1000.0,-1000.0,-1000.0,-1000.0,-1000.0,-1000.0,-1000.0,-1000.0,-1000.0,-1000.0,-1000.0,-1000.0,-1000.0,-1000.0,-1000.0,-1000.0,-1000.0,-1000.0,-1000.0,-1000.0,-1000.0,-1000.0,-1000.0,-1000.0,-1000.0,-1000.0,-1000.0,-1000.0,-1000.0,-1000.0,-1000.0,-1000.0,-1000.0,-1000.0,-1000.0,-1000.0,-1000.0,-1000.0,-1000.0,-1000.0,-1000.0,-1000.0,-1000.0,-1000.0,-1000.0,1.0,3.0,yes,180.0,240.0,2664616.0,even,asymm,2664066.0,165.0,165.0,lower,-211.0,-7.0,180.0,-31.0319959052,0.0,-211.0,right,fork,object,no,25.5,-176.2,-25.5,-176.2,-0.136363636364,-0.940540540541,-25.5,176.2,-0.0810481356414,-1000.0,-1000.0,-1000.0,-1000.0,-1000.0,-1000.0,-1000.0,-1000.0,-1000.0,-1000.0,-1000.0,-1000.0,-1000.0,-1000.0,-1000.0,-1000.0,-1000.0,-1000.0,-1000.0,-1000.0,-1000.0,-1000.0,-1000.0,-1000.0,-1000.0,-1000.0,-1000.0,-1000.0,-1000.0,-1000.0,-1000.0,-1000.0,-1000.0,-1000.0,-1000.0,-1000.0,187.0,37.0,-10.3439986351,-0.304235253973,-0.0553155007223,object_fork.png,144.0,0.0,0.0,0.0,0.0,__dummy__PP12.asc__,0.0,-0.08155278434,10.0
305.21660076,1.0,control,1.0,kitchen,no,False,False,incompatible,('handle_right',,1.0,0.0,85.0,150.0,1358.0,495.0,004A,undefined,PP12.asc,zero,right,376.196029963,black,32.0,A,control,25.0,50.0,4000.0,50.0,50.0,0.0,peeler,False,0.0,10.0,asymm_kitchen_peeler,4.0,1.0,left,2690156.0,-1000.0,-1000.0,-1000.0,-1000.0,-1000.0,-1000.0,-1000.0,-1000.0,38.0,2689613.0,500.6,557.3,2689575.0,183.910875154,498.6,373.4,32.0,2689749.0,477.3,609.1,2689717.0,62.3969550539,502.0,551.8,12.0,2689895.0,457.9,596.4,2689883.0,20.7171426601,471.3,612.2,-1000.0,-1000.0,-1000.0,-1000.0,-1000.0,-1000.0,-1000.0,-1000.0,-1000.0,-1000.0,-1000.0,-1000.0,-1000.0,-1000.0,-1000.0,-1000.0,-1000.0,-1000.0,-1000.0,-1000.0,-1000.0,-1000.0,-1000.0,-1000.0,-1000.0,-1000.0,-1000.0,-1000.0,-1000.0,-1000.0,-1000.0,-1000.0,-1000.0,-1000.0,-1000.0,-1000.0,-1000.0,-1000.0,-1000.0,-1000.0,-1000.0,-1000.0,-1000.0,-1000.0,-1000.0,-1000.0,-1000.0,-1000.0,3.0,3.0,yes,180.0,240.0,2689349.0,even,asymm,2687989.0,170.0,170.0,lower,-237.0,-7.0,180.0,-0.384262651214,0.0,-237.0,right,peeler,object,no,11.4,-173.3,-11.4,-173.3,-0.0791666666667,-2.65416666667,-11.4,173.3,-0.0782771697889,34.7,-225.1,-34.7,-225.1,-0.240972222222,-0.495833333333,-34.7,225.1,-0.240082725344,54.1,-212.4,-54.1,-212.4,-0.375694444444,-1.025,-54.1,212.4,-0.374804947567,-1000.0,-1000.0,-1000.0,-1000.0,-1000.0,-1000.0,-1000.0,-1000.0,-1000.0,-1000.0,-1000.0,-1000.0,-1000.0,-1000.0,-1000.0,-1000.0,-1000.0,-1000.0,144.0,24.0,-0.128087550405,-0.00376728089425,-0.00088949687781,object_peeler.png,226.0,368.0,534.0,0.0,0.0,__dummy__PP12.asc__,0.0,-0.0787818184875,80.0
1483.52091775,1.0,control,1.0,garage,no,False,False,incompatible,('handle_left',,2.0,0.0,85.0,150.0,657.0,409.0,004A,undefined,PP12.asc,zero,left,394.167129832,black,32.0,E,control,25.0,50.0,4000.0,50.0,50.0,0.0,paintbrush,False,0.0,11.0,asymm_garage_paintbrush,5.0,2.0,right,2695595.0,-1000.0,-1000.0,-1000.0,-1000.0,-1000.0,-1000.0,-1000.0,-1000.0,32.0,2693875.0,502.6,225.8,2693843.0,134.813389543,504.5,360.6,23.0,2694010.0,541.6,176.7,2693987.0,69.0690234476,495.8,228.4,-1000.0,-1000.0,-1000.0,-1000.0,-1000.0,-1000.0,-1000.0,-1000.0,-1000.0,-1000.0,-1000.0,-1000.0,-1000.0,-1000.0,-1000.0,-1000.0,-1000.0,-1000.0,-1000.0,-1000.0,-1000.0,-1000.0,-1000.0,-1000.0,-1000.0,-1000.0,-1000.0,-1000.0,-1000.0,-1000.0,-1000.0,-1000.0,-1000.0,-1000.0,-1000.0,-1000.0,-1000.0,-1000.0,-1000.0,-1000.0,-1000.0,-1000.0,-1000.0,-1000.0,-1000.0,-1000.0,-1000.0,-1000.0,-1000.0,-1000.0,-1000.0,-1000.0,-1000.0,-1000.0,-1000.0,-1000.0,2.0,3.0,yes,180.0,240.0,2693700.0,even,asymm,2693039.0,171.0,171.0,upper,211.0,6.0,0.0,30.6897921115,0.0,211.0,left,paintbrush,object,no,-9.4,-158.2,9.4,-158.2,0.0534090909091,-1.50857142857,-9.4,-158.2,-0.00471551536269,29.6,-207.3,-29.6,-207.3,-0.168181818182,-0.105714285714,29.6,-207.3,-0.226306424454,-1000.0,-1000.0,-1000.0,-1000.0,-1000.0,-1000.0,-1000.0,-1000.0,-1000.0,-1000.0,-1000.0,-1000.0,-1000.0,-1000.0,-1000.0,-1000.0,-1000.0,-1000.0,-1000.0,-1000.0,-1000.0,-1000.0,-1000.0,-1000.0,-1000.0,-1000.0,-1000.0,176.0,35.0,10.2299307038,0.300880314819,0.0581246062718,object_paintbrush.png,143.0,287.0,0.0,0.0,0.0,__dummy__PP12.asc__,0.0,-0.00522016406129,10.0
383.553404375,1.0,control,1.0,kitchen,no,False,False,compatible,('handle_left',,1.0,0.0,85.0,150.0,1966.0,371.0,004A,undefined,PP12.asc,zero,left,394.934576465,black,32.0,E,control,25.0,50.0,4000.0,50.0,50.0,0.0,sharpeningsteel,False,0.0,10.0,asymm_kitchen_sharpeningsteel,4.0,1.0,left,2704701.0,-1000.0,-1000.0,-1000.0,-1000.0,-1000.0,-1000.0,-1000.0,-1000.0,38.0,2704145.0,512.1,493.3,2704107.0,131.218672452,496.6,363.0,27.0,2704202.0,476.5,570.5,2704175.0,73.3027284622,510.0,505.3,22.0,2704374.0,507.5,597.6,2704352.0,40.2349350689,479.2,569.0,13.0,2704596.0,478.6,584.8,2704583.0,28.131121556,503.0,598.8,-1000.0,-1000.0,-1000.0,-1000.0,-1000.0,-1000.0,-1000.0,-1000.0,-1000.0,-1000.0,-1000.0,-1000.0,-1000.0,-1000.0,-1000.0,-1000.0,-1000.0,-1000.0,-1000.0,-1000.0,-1000.0,-1000.0,-1000.0,-1000.0,-1000.0,-1000.0,-1000.0,-1000.0,-1000.0,-1000.0,-1000.0,-1000.0,-1000.0,-1000.0,-1000.0,-1000.0,-1000.0,-1000.0,-1000.0,-1000.0,4.0,3.0,yes,180.0,240.0,2703941.0,even,asymm,2701970.0,173.0,173.0,lower,-221.0,-7.0,180.0,-28.4188527416,0.0,-221.0,left,sharpeningsteel,object,no,-0.1,-109.3,-0.1,-109.3,-0.000552486187846,-4.468,0.1,109.3,0.0517842591926,35.5,-186.5,35.5,-186.5,0.196132596685,-1.38,-35.5,186.5,0.248469342066,4.5,-213.6,4.5,-213.6,0.024861878453,-0.296,-4.5,213.6,0.0771986238335,33.4,-200.8,33.4,-200.8,0.18453038674,-0.808,-33.4,200.8,0.236867132121,-1000.0,-1000.0,-1000.0,-1000.0,-1000.0,-1000.0,-1000.0,-1000.0,-1000.0,181.0,25.0,-9.47295091387,-0.278616203349,-0.0523367453805,object_sharpeningsteel.png,166.0,234.0,411.0,642.0,0.0,__dummy__PP12.asc__,0.0,0.051279610494,40.0
136.765095928,1.0,control,1.0,kitchen,no,False,False,compatible,('handle_left',,1.0,0.0,85.0,150.0,1249.0,442.0,004A,undefined,PP12.asc,overlap,left,389.464624643,black,32.0,E,control,25.0,50.0,4000.0,50.0,50.0,0.0,washingbrush,False,0.0,10.0,asymm_kitchen_washingbrush,5.0,1.0,left,2725771.0,-1000.0,-1000.0,-1000.0,-1000.0,-1000.0,-1000.0,-1000.0,-1000.0,29.0,2725365.0,522.9,216.1,2725336.0,127.701057161,483.9,337.7,23.0,2725526.0,551.6,166.8,2725503.0,67.0734671834,516.9,224.2,-1000.0,-1000.0,-1000.0,-1000.0,-1000.0,-1000.0,-1000.0,-1000.0,-1000.0,-1000.0,-1000.0,-1000.0,-1000.0,-1000.0,-1000.0,-1000.0,-1000.0,-1000.0,-1000.0,-1000.0,-1000.0,-1000.0,-1000.0,-1000.0,-1000.0,-1000.0,-1000.0,-1000.0,-1000.0,-1000.0,-1000.0,-1000.0,-1000.0,-1000.0,-1000.0,-1000.0,-1000.0,-1000.0,-1000.0,-1000.0,-1000.0,-1000.0,-1000.0,-1000.0,-1000.0,-1000.0,-1000.0,-1000.0,-1000.0,-1000.0,-1000.0,-1000.0,-1000.0,-1000.0,-1000.0,-1000.0,2.0,3.0,yes,180.0,240.0,2725183.0,even,asymm,2723923.0,178.0,178.0,upper,219.0,6.0,0.0,34.2563568121,0.0,219.0,left,washingbrush,object,no,10.9,-167.9,-10.9,-167.9,-0.0619318181818,-1.16136363636,10.9,-167.9,-0.126811281841,39.6,-217.2,-39.6,-217.2,-0.225,-0.0409090909091,39.6,-217.2,-0.289879463659,-1000.0,-1000.0,-1000.0,-1000.0,-1000.0,-1000.0,-1000.0,-1000.0,-1000.0,-1000.0,-1000.0,-1000.0,-1000.0,-1000.0,-1000.0,-1000.0,-1000.0,-1000.0,-1000.0,-1000.0,-1000.0,-1000.0,-1000.0,-1000.0,-1000.0,-1000.0,-1000.0,176.0,44.0,11.418785604,0.335846635413,0.0648794636593,object_washingbrush.png,153.0,320.0,0.0,0.0,0.0,__dummy__PP12.asc__,0.0,-0.12731593054,20.0
557.630759969,1.0,control,1.0,garage,no,False,False,compatible,('handle_right',,2.0,0.0,85.0,150.0,7344.0,335.0,004A,undefined,PP12.asc,overlap,right,421.945319566,black,32.0,A,control,25.0,50.0,4000.0,50.0,50.0,1.0,chisel2,False,0.0,10.0,asymm_garage_chisel2,5.0,2.0,right,2751263.0,-1000.0,-1000.0,-1000.0,-1000.0,-1000.0,-1000.0,-1000.0,-1000.0,43.0,2750612.0,497.6,530.6,2750569.0,162.581179723,521.6,369.8,9.0,2750872.0,485.1,535.2,2750863.0,18.1240172147,491.9,552.0,-1000.0,-1000.0,-1000.0,-1000.0,-1000.0,-1000.0,-1000.0,-1000.0,-1000.0,-1000.0,-1000.0,-1000.0,-1000.0,-1000.0,-1000.0,-1000.0,-1000.0,-1000.0,-1000.0,-1000.0,-1000.0,-1000.0,-1000.0,-1000.0,-1000.0,-1000.0,-1000.0,-1000.0,-1000.0,-1000.0,-1000.0,-1000.0,-1000.0,-1000.0,-1000.0,-1000.0,-1000.0,-1000.0,-1000.0,-1000.0,-1000.0,-1000.0,-1000.0,-1000.0,-1000.0,-1000.0,-1000.0,-1000.0,-1000.0,-1000.0,-1000.0,-1000.0,-1000.0,-1000.0,-1000.0,-1000.0,2.0,3.0,yes,180.0,240.0,2750366.0,even,asymm,2743015.0,182.0,182.0,lower,-180.0,-6.0,180.0,-3.84729150124,0.0,-180.0,right,chisel2,object,no,14.4,-146.6,-14.4,-146.6,-0.0818181818182,-0.954285714286,-14.4,146.6,-0.074531644884,26.9,-151.2,-26.9,-151.2,-0.152840909091,-0.822857142857,-26.9,151.2,-0.145554372157,-1000.0,-1000.0,-1000.0,-1000.0,-1000.0,-1000.0,-1000.0,-1000.0,-1000.0,-1000.0,-1000.0,-1000.0,-1000.0,-1000.0,-1000.0,-1000.0,-1000.0,-1000.0,-1000.0,-1000.0,-1000.0,-1000.0,-1000.0,-1000.0,-1000.0,-1000.0,-1000.0,176.0,35.0,-1.28243050041,-0.0377185441298,-0.00728653693417,object_chisel2.png,203.0,497.0,0.0,0.0,0.0,__dummy__PP12.asc__,0.0,-0.0750362935826,60.0
350.64244486,1.0,control,2.0,kitchen,no,False,False,incompatible,('handle_right',,1.0,0.0,85.0,150.0,503.0,451.0,004A,undefined,PP12.asc,overlap,right,380.167946655,black,32.0,B,control,25.0,50.0,4000.0,50.0,50.0,0.0,fork,False,0.0,12.0,asymm_kitchen_fork,1.0,1.0,left,2870960.0,-1000.0,-1000.0,-1000.0,-1000.0,-1000.0,-1000.0,-1000.0,-1000.0,40.0,2870473.0,465.5,522.5,2870433.0,164.043713686,503.0,362.8,6.0,2870645.0,457.2,551.7,2870639.0,11.6378692208,461.0,540.7,-1000.0,-1000.0,-1000.0,-1000.0,-1000.0,-1000.0,-1000.0,-1000.0,-1000.0,-1000.0,-1000.0,-1000.0,-1000.0,-1000.0,-1000.0,-1000.0,-1000.0,-1000.0,-1000.0,-1000.0,-1000.0,-1000.0,-1000.0,-1000.0,-1000.0,-1000.0,-1000.0,-1000.0,-1000.0,-1000.0,-1000.0,-1000.0,-1000.0,-1000.0,-1000.0,-1000.0,-1000.0,-1000.0,-1000.0,-1000.0,-1000.0,-1000.0,-1000.0,-1000.0,-1000.0,-1000.0,-1000.0,-1000.0,-1000.0,-1000.0,-1000.0,-1000.0,-1000.0,-1000.0,-1000.0,-1000.0,2.0,3.0,yes,180.0,240.0,2870149.0,even,asymm,2869639.0,192.0,192.0,lower,-189.0,-6.0,180.0,-31.0319959052,0.0,-189.0,right,fork,object,no,46.5,-138.5,-46.5,-138.5,-0.248663101604,-1.36486486486,-46.5,138.5,-0.193347600882,54.8,-167.7,-54.8,-167.7,-0.293048128342,-0.575675675676,-54.8,167.7,-0.23773262762,-1000.0,-1000.0,-1000.0,-1000.0,-1000.0,-1000.0,-1000.0,-1000.0,-1000.0,-1000.0,-1000.0,-1000.0,-1000.0,-1000.0,-1000.0,-1000.0,-1000.0,-1000.0,-1000.0,-1000.0,-1000.0,-1000.0,-1000.0,-1000.0,-1000.0,-1000.0,-1000.0,187.0,37.0,-10.3439986351,-0.304235253973,-0.0553155007223,object_fork.png,284.0,490.0,0.0,0.0,0.0,__dummy__PP12.asc__,0.0,-0.193852249581,90.0
352.969402871,1.0,control,2.0,kitchen,no,False,False,compatible,('handle_left',,1.0,0.0,85.0,150.0,1678.0,317.0,004A,undefined,PP12.asc,zero,left,392.382030969,black,32.0,D,control,25.0,50.0,4000.0,50.0,50.0,0.0,spoon2,False,0.0,12.0,asymm_kitchen_spoon2,1.0,1.0,left,2884247.0,-1000.0,-1000.0,-1000.0,-1000.0,-1000.0,-1000.0,-1000.0,-1000.0,38.0,2883772.0,522.6,198.1,2883734.0,163.130653159,502.6,360.0,18.0,2883931.0,560.8,189.4,2883913.0,47.6563741802,515.5,204.2,-1000.0,-1000.0,-1000.0,-1000.0,-1000.0,-1000.0,-1000.0,-1000.0,-1000.0,-1000.0,-1000.0,-1000.0,-1000.0,-1000.0,-1000.0,-1000.0,-1000.0,-1000.0,-1000.0,-1000.0,-1000.0,-1000.0,-1000.0,-1000.0,-1000.0,-1000.0,-1000.0,-1000.0,-1000.0,-1000.0,-1000.0,-1000.0,-1000.0,-1000.0,-1000.0,-1000.0,-1000.0,-1000.0,-1000.0,-1000.0,-1000.0,-1000.0,-1000.0,-1000.0,-1000.0,-1000.0,-1000.0,-1000.0,-1000.0,-1000.0,-1000.0,-1000.0,-1000.0,-1000.0,-1000.0,-1000.0,2.0,3.0,yes,180.0,240.0,2883571.0,even,asymm,2881890.0,195.0,195.0,upper,218.0,6.0,0.0,12.3796717148,0.0,218.0,left,spoon2,object,no,10.6,-185.9,-10.6,-185.9,-0.0602272727273,-0.729545454545,10.6,-185.9,-0.083673620672,48.8,-194.6,-48.8,-194.6,-0.277272727273,-0.531818181818,48.8,-194.6,-0.300719075217,-1000.0,-1000.0,-1000.0,-1000.0,-1000.0,-1000.0,-1000.0,-1000.0,-1000.0,-1000.0,-1000.0,-1000.0,-1000.0,-1000.0,-1000.0,-1000.0,-1000.0,-1000.0,-1000.0,-1000.0,-1000.0,-1000.0,-1000.0,-1000.0,-1000.0,-1000.0,-1000.0,176.0,44.0,4.12655723827,0.121369330537,0.0234463479447,object_spoon2.png,163.0,342.0,0.0,0.0,0.0,__dummy__PP12.asc__,0.0,-0.0841782693706,40.0
234.560822231,1.0,control,2.0,garage,no,False,False,incompatible,('handle_left',,2.0,0.0,85.0,150.0,508.0,301.0,004A,undefined,PP12.asc,zero,left,395.994955933,black,32.0,D,control,25.0,50.0,4000.0,50.0,50.0,0.0,chisel2,False,0.0,11.0,asymm_garage_chisel2,1.0,2.0,right,2897694.0,-1000.0,-1000.0,-1000.0,-1000.0,-1000.0,-1000.0,-1000.0,-1000.0,32.0,2897332.0,514.5,226.3,2897300.0,145.509930933,512.8,371.8,20.0,2897523.0,559.8,208.6,2897503.0,54.5165112604,511.2,233.3,-1000.0,-1000.0,-1000.0,-1000.0,-1000.0,-1000.0,-1000.0,-1000.0,-1000.0,-1000.0,-1000.0,-1000.0,-1000.0,-1000.0,-1000.0,-1000.0,-1000.0,-1000.0,-1000.0,-1000.0,-1000.0,-1000.0,-1000.0,-1000.0,-1000.0,-1000.0,-1000.0,-1000.0,-1000.0,-1000.0,-1000.0,-1000.0,-1000.0,-1000.0,-1000.0,-1000.0,-1000.0,-1000.0,-1000.0,-1000.0,-1000.0,-1000.0,-1000.0,-1000.0,-1000.0,-1000.0,-1000.0,-1000.0,-1000.0,-1000.0,-1000.0,-1000.0,-1000.0,-1000.0,-1000.0,-1000.0,2.0,3.0,yes,180.0,240.0,2897152.0,even,asymm,2896642.0,198.0,198.0,upper,171.0,5.0,0.0,3.84729150124,0.0,171.0,left,chisel2,object,no,2.5,-157.7,-2.5,-157.7,-0.0142045454545,-0.38,2.5,-157.7,-0.0214910823887,47.8,-175.4,-47.8,-175.4,-0.271590909091,0.125714285714,47.8,-175.4,-0.278877446025,-1000.0,-1000.0,-1000.0,-1000.0,-1000.0,-1000.0,-1000.0,-1000.0,-1000.0,-1000.0,-1000.0,-1000.0,-1000.0,-1000.0,-1000.0,-1000.0,-1000.0,-1000.0,-1000.0,-1000.0,-1000.0,-1000.0,-1000.0,-1000.0,-1000.0,-1000.0,-1000.0,176.0,35.0,1.28243050041,0.0377185441298,0.00728653693417,object_chisel2.png,148.0,351.0,0.0,0.0,0.0,__dummy__PP12.asc__,0.0,-0.0219957310873,20.0
224.069315895,1.0,control,2.0,garage,no,False,False,compatible,('handle_right',,2.0,0.0,85.0,150.0,552.0,429.0,004A,undefined,PP12.asc,zero,right,451.8424322,black,32.0,B,control,25.0,50.0,4000.0,50.0,50.0,0.0,chisel,False,0.0,13.0,asymm_garage_chisel,2.0,2.0,right,2933655.0,-1000.0,-1000.0,-1000.0,-1000.0,-1000.0,-1000.0,-1000.0,-1000.0,32.0,2933146.0,506.6,561.2,2933114.0,187.989494387,512.4,373.3,23.0,2933316.0,521.4,579.7,2933293.0,23.9870798556,517.7,556.0,-1000.0,-1000.0,-1000.0,-1000.0,-1000.0,-1000.0,-1000.0,-1000.0,-1000.0,-1000.0,-1000.0,-1000.0,-1000.0,-1000.0,-1000.0,-1000.0,-1000.0,-1000.0,-1000.0,-1000.0,-1000.0,-1000.0,-1000.0,-1000.0,-1000.0,-1000.0,-1000.0,-1000.0,-1000.0,-1000.0,-1000.0,-1000.0,-1000.0,-1000.0,-1000.0,-1000.0,-1000.0,-1000.0,-1000.0,-1000.0,-1000.0,-1000.0,-1000.0,-1000.0,-1000.0,-1000.0,-1000.0,-1000.0,-1000.0,-1000.0,-1000.0,-1000.0,-1000.0,-1000.0,-1000.0,-1000.0,2.0,3.0,yes,180.0,240.0,2932996.0,even,asymm,2932436.0,207.0,207.0,lower,-231.0,-7.0,180.0,25.8224210823,0.0,-231.0,right,chisel,object,no,5.4,-177.2,-5.4,-177.2,-0.0306818181818,-1.85517241379,-5.4,177.2,-0.0795879187165,-9.4,-195.7,9.4,-195.7,0.0534090909091,-1.21724137931,9.4,195.7,0.00450299037443,-1000.0,-1000.0,-1000.0,-1000.0,-1000.0,-1000.0,-1000.0,-1000.0,-1000.0,-1000.0,-1000.0,-1000.0,-1000.0,-1000.0,-1000.0,-1000.0,-1000.0,-1000.0,-1000.0,-1000.0,-1000.0,-1000.0,-1000.0,-1000.0,-1000.0,-1000.0,-1000.0,176.0,29.0,8.6074736941,0.253160991003,0.0489061005347,object_chisel.png,118.0,297.0,0.0,0.0,0.0,__dummy__PP12.asc__,0.0,-0.0800925674151,0.0
337.748846547,1.0,control,2.0,garage,no,False,False,incompatible,('handle_left',,2.0,0.0,85.0,150.0,659.0,288.0,004A,undefined,PP12.asc,zero,left,362.424473386,black,32.0,D,control,25.0,50.0,4000.0,50.0,50.0,0.0,wrench,False,0.0,13.0,asymm_garage_wrench,2.0,2.0,right,2937379.0,-1000.0,-1000.0,-1000.0,-1000.0,-1000.0,-1000.0,-1000.0,-1000.0,34.0,2936921.0,516.1,212.7,2936887.0,153.076614804,500.7,365.0,20.0,2937088.0,564.1,211.8,2937068.0,54.8318338194,509.9,220.1,-1000.0,-1000.0,-1000.0,-1000.0,-1000.0,-1000.0,-1000.0,-1000.0,-1000.0,-1000.0,-1000.0,-1000.0,-1000.0,-1000.0,-1000.0,-1000.0,-1000.0,-1000.0,-1000.0,-1000.0,-1000.0,-1000.0,-1000.0,-1000.0,-1000.0,-1000.0,-1000.0,-1000.0,-1000.0,-1000.0,-1000.0,-1000.0,-1000.0,-1000.0,-1000.0,-1000.0,-1000.0,-1000.0,-1000.0,-1000.0,-1000.0,-1000.0,-1000.0,-1000.0,-1000.0,-1000.0,-1000.0,-1000.0,-1000.0,-1000.0,-1000.0,-1000.0,-1000.0,-1000.0,-1000.0,-1000.0,2.0,3.0,yes,180.0,240.0,2936746.0,even,asymm,2936076.0,208.0,208.0,upper,180.0,5.0,0.0,22.3837053908,0.0,180.0,left,wrench,object,no,4.1,-171.3,-4.1,-171.3,-0.0232954545455,-0.248571428571,4.1,-171.3,-0.0656888359674,52.1,-172.2,-52.1,-172.2,-0.296022727273,-0.222857142857,52.1,-172.2,-0.338416108695,-1000.0,-1000.0,-1000.0,-1000.0,-1000.0,-1000.0,-1000.0,-1000.0,-1000.0,-1000.0,-1000.0,-1000.0,-1000.0,-1000.0,-1000.0,-1000.0,-1000.0,-1000.0,-1000.0,-1000.0,-1000.0,-1000.0,-1000.0,-1000.0,-1000.0,-1000.0,-1000.0,176.0,35.0,7.46123513027,0.219448092067,0.042393381422,object_wrench.png,141.0,322.0,0.0,0.0,0.0,__dummy__PP12.asc__,0.0,-0.066193484666,10.0
313.226831742,1.0,control,2.0,garage,no,False,False,incompatible,('handle_left',,2.0,0.0,85.0,150.0,528.0,310.0,004A,undefined,PP12.asc,overlap,left,400.621787134,black,32.0,D,control,25.0,50.0,4000.0,50.0,50.0,0.0,paintbrush,False,0.0,13.0,asymm_garage_paintbrush,2.0,2.0,right,2949049.0,-1000.0,-1000.0,-1000.0,-1000.0,-1000.0,-1000.0,-1000.0,-1000.0,41.0,2948618.0,526.6,545.7,2948577.0,182.550403998,509.0,364.0,-1000.0,-1000.0,-1000.0,-1000.0,-1000.0,-1000.0,-1000.0,-1000.0,-1000.0,-1000.0,-1000.0,-1000.0,-1000.0,-1000.0,-1000.0,-1000.0,-1000.0,-1000.0,-1000.0,-1000.0,-1000.0,-1000.0,-1000.0,-1000.0,-1000.0,-1000.0,-1000.0,-1000.0,-1000.0,-1000.0,-1000.0,-1000.0,-1000.0,-1000.0,-1000.0,-1000.0,-1000.0,-1000.0,-1000.0,-1000.0,-1000.0,-1000.0,-1000.0,-1000.0,-1000.0,-1000.0,-1000.0,-1000.0,-1000.0,-1000.0,-1000.0,-1000.0,-1000.0,-1000.0,-1000.0,-1000.0,-1000.0,-1000.0,-1000.0,-1000.0,-1000.0,-1000.0,-1000.0,-1000.0,1.0,3.0,yes,180.0,240.0,2948418.0,even,asymm,2947878.0,211.0,211.0,lower,-177.0,-6.0,180.0,30.6897921115,0.0,-177.0,left,paintbrush,object,no,-14.6,-161.7,-14.6,-161.7,-0.0829545454545,-0.437142857143,14.6,161.7,-0.141079151726,-1000.0,-1000.0,-1000.0,-1000.0,-1000.0,-1000.0,-1000.0,-1000.0,-1000.0,-1000.0,-1000.0,-1000.0,-1000.0,-1000.0,-1000.0,-1000.0,-1000.0,-1000.0,-1000.0,-1000.0,-1000.0,-1000.0,-1000.0,-1000.0,-1000.0,-1000.0,-1000.0,-1000.0,-1000.0,-1000.0,-1000.0,-1000.0,-1000.0,-1000.0,-1000.0,-1000.0,176.0,35.0,10.2299307038,0.300880314819,0.0581246062718,object_paintbrush.png,159.0,0.0,0.0,0.0,0.0,__dummy__PP12.asc__,0.0,-0.141583800425,30.0
214.653555862,1.0,control,2.0,garage,no,False,False,compatible,('handle_right',,2.0,0.0,85.0,150.0,923.0,326.0,004A,undefined,PP12.asc,zero,right,426.389377962,black,32.0,B,control,25.0,50.0,4000.0,50.0,50.0,0.0,hammer,False,0.0,12.0,asymm_garage_hammer,2.0,2.0,right,2957355.0,-1000.0,-1000.0,-1000.0,-1000.0,-1000.0,-1000.0,-1000.0,-1000.0,29.0,2956990.0,482.6,241.1,2956961.0,133.250928702,515.6,370.2,13.0,2957169.0,467.2,222.0,2957156.0,27.2259067801,471.4,248.9,-1000.0,-1000.0,-1000.0,-1000.0,-1000.0,-1000.0,-1000.0,-1000.0,-1000.0,-1000.0,-1000.0,-1000.0,-1000.0,-1000.0,-1000.0,-1000.0,-1000.0,-1000.0,-1000.0,-1000.0,-1000.0,-1000.0,-1000.0,-1000.0,-1000.0,-1000.0,-1000.0,-1000.0,-1000.0,-1000.0,-1000.0,-1000.0,-1000.0,-1000.0,-1000.0,-1000.0,-1000.0,-1000.0,-1000.0,-1000.0,-1000.0,-1000.0,-1000.0,-1000.0,-1000.0,-1000.0,-1000.0,-1000.0,-1000.0,-1000.0,-1000.0,-1000.0,-1000.0,-1000.0,-1000.0,-1000.0,2.0,3.0,yes,180.0,240.0,2956809.0,even,asymm,2955878.0,213.0,213.0,upper,181.0,5.0,0.0,-49.0924872956,0.0,181.0,right,hammer,object,no,-29.4,-142.9,-29.4,-142.9,-0.178181818182,-0.464634146341,-29.4,-142.9,-0.0790050761705,-44.8,-162.0,-44.8,-162.0,-0.271515151515,-0.231707317073,-44.8,-162.0,-0.172338409504,-1000.0,-1000.0,-1000.0,-1000.0,-1000.0,-1000.0,-1000.0,-1000.0,-1000.0,-1000.0,-1000.0,-1000.0,-1000.0,-1000.0,-1000.0,-1000.0,-1000.0,-1000.0,-1000.0,-1000.0,-1000.0,-1000.0,-1000.0,-1000.0,-1000.0,-1000.0,-1000.0,165.0,82.0,-16.3641624319,-0.481298895055,-0.0991767420113,object_hammer.png,152.0,347.0,0.0,0.0,0.0,__dummy__PP12.asc__,0.0,-0.0795097248691,20.0
251.598254501,1.0,control,2.0,garage,no,False,False,incompatible,('handle_left',,2.0,0.0,85.0,150.0,596.0,269.0,004A,undefined,PP12.asc,overlap,left,382.451158005,black,32.0,D,control,25.0,50.0,4000.0,50.0,50.0,0.0,mallet,False,0.0,12.0,asymm_garage_mallet,1.0,2.0,right,2964458.0,-1000.0,-1000.0,-1000.0,-1000.0,-1000.0,-1000.0,-1000.0,-1000.0,37.0,2964092.0,510.0,581.7,2964055.0,211.469761432,497.5,370.6,21.0,2964283.0,538.9,577.2,2964262.0,29.2027395975,509.7,577.6,-1000.0,-1000.0,-1000.0,-1000.0,-1000.0,-1000.0,-1000.0,-1000.0,-1000.0,-1000.0,-1000.0,-1000.0,-1000.0,-1000.0,-1000.0,-1000.0,-1000.0,-1000.0,-1000.0,-1000.0,-1000.0,-1000.0,-1000.0,-1000.0,-1000.0,-1000.0,-1000.0,-1000.0,-1000.0,-1000.0,-1000.0,-1000.0,-1000.0,-1000.0,-1000.0,-1000.0,-1000.0,-1000.0,-1000.0,-1000.0,-1000.0,-1000.0,-1000.0,-1000.0,-1000.0,-1000.0,-1000.0,-1000.0,-1000.0,-1000.0,-1000.0,-1000.0,-1000.0,-1000.0,-1000.0,-1000.0,2.0,3.0,yes,180.0,240.0,2963929.0,even,asymm,2963329.0,215.0,215.0,lower,-214.0,-7.0,180.0,38.1359159379,0.0,-214.0,left,mallet,object,no,2.0,-197.7,2.0,-197.7,0.0123456790123,-0.201234567901,-2.0,197.7,-0.0661232838228,-26.9,-193.2,-26.9,-193.2,-0.166049382716,-0.256790123457,26.9,193.2,-0.244518345551,-1000.0,-1000.0,-1000.0,-1000.0,-1000.0,-1000.0,-1000.0,-1000.0,-1000.0,-1000.0,-1000.0,-1000.0,-1000.0,-1000.0,-1000.0,-1000.0,-1000.0,-1000.0,-1000.0,-1000.0,-1000.0,-1000.0,-1000.0,-1000.0,-1000.0,-1000.0,-1000.0,162.0,81.0,12.7119719793,0.373881528803,0.0784689628352,object_mallet.png,126.0,333.0,0.0,0.0,0.0,__dummy__PP12.asc__,0.0,-0.0666279325214,0.0
175.253773378,1.0,control,2.0,kitchen,no,False,False,compatible,('handle_left',,1.0,0.0,85.0,150.0,458.0,311.0,004A,undefined,PP12.asc,zero,left,344.897756012,black,32.0,D,control,25.0,50.0,4000.0,50.0,50.0,0.0,washingbrush,False,0.0,12.0,asymm_kitchen_washingbrush,2.0,1.0,left,2983544.0,-1000.0,-1000.0,-1000.0,-1000.0,-1000.0,-1000.0,-1000.0,-1000.0,32.0,2983249.0,529.0,562.6,2983217.0,179.994249908,508.3,383.8,21.0,2983471.0,555.8,566.9,2983450.0,39.6313007609,518.8,552.7,-1000.0,-1000.0,-1000.0,-1000.0,-1000.0,-1000.0,-1000.0,-1000.0,-1000.0,-1000.0,-1000.0,-1000.0,-1000.0,-1000.0,-1000.0,-1000.0,-1000.0,-1000.0,-1000.0,-1000.0,-1000.0,-1000.0,-1000.0,-1000.0,-1000.0,-1000.0,-1000.0,-1000.0,-1000.0,-1000.0,-1000.0,-1000.0,-1000.0,-1000.0,-1000.0,-1000.0,-1000.0,-1000.0,-1000.0,-1000.0,-1000.0,-1000.0,-1000.0,-1000.0,-1000.0,-1000.0,-1000.0,-1000.0,-1000.0,-1000.0,-1000.0,-1000.0,-1000.0,-1000.0,-1000.0,-1000.0,2.0,3.0,yes,180.0,240.0,2983052.0,even,asymm,2982582.0,220.0,220.0,lower,-207.0,-7.0,180.0,34.2563568121,0.0,-207.0,left,washingbrush,object,no,-17.0,-178.6,-17.0,-178.6,-0.0965909090909,-0.645454545455,17.0,178.6,-0.16147037275,-43.8,-182.9,-43.8,-182.9,-0.248863636364,-0.547727272727,43.8,182.9,-0.313743100023,-1000.0,-1000.0,-1000.0,-1000.0,-1000.0,-1000.0,-1000.0,-1000.0,-1000.0,-1000.0,-1000.0,-1000.0,-1000.0,-1000.0,-1000.0,-1000.0,-1000.0,-1000.0,-1000.0,-1000.0,-1000.0,-1000.0,-1000.0,-1000.0,-1000.0,-1000.0,-1000.0,176.0,44.0,11.418785604,0.335846635413,0.0648794636593,object_washingbrush.png,165.0,398.0,0.0,0.0,0.0,__dummy__PP12.asc__,0.0,-0.161975021449,40.0
125.887162295,1.0,control,2.0,kitchen,no,False,False,incompatible,('handle_right',,1.0,0.0,85.0,150.0,477.0,369.0,004A,undefined,PP12.asc,zero,right,370.390315057,black,32.0,B,control,25.0,50.0,4000.0,50.0,50.0,0.0,spoon,False,0.0,13.0,asymm_kitchen_spoon,3.0,1.0,left,3100807.0,-1000.0,-1000.0,-1000.0,-1000.0,-1000.0,-1000.0,-1000.0,-1000.0,32.0,3100531.0,480.0,569.6,3100499.0,197.525745157,512.1,374.7,23.0,3100739.0,447.0,613.2,3100716.0,62.8589691293,480.0,559.7,-1000.0,-1000.0,-1000.0,-1000.0,-1000.0,-1000.0,-1000.0,-1000.0,-1000.0,-1000.0,-1000.0,-1000.0,-1000.0,-1000.0,-1000.0,-1000.0,-1000.0,-1000.0,-1000.0,-1000.0,-1000.0,-1000.0,-1000.0,-1000.0,-1000.0,-1000.0,-1000.0,-1000.0,-1000.0,-1000.0,-1000.0,-1000.0,-1000.0,-1000.0,-1000.0,-1000.0,-1000.0,-1000.0,-1000.0,-1000.0,-1000.0,-1000.0,-1000.0,-1000.0,-1000.0,-1000.0,-1000.0,-1000.0,-1000.0,-1000.0,-1000.0,-1000.0,-1000.0,-1000.0,-1000.0,-1000.0,2.0,3.0,yes,180.0,240.0,3100305.0,even,asymm,3099824.0,238.0,238.0,lower,-219.0,-7.0,180.0,-14.4180022509,0.0,-219.0,right,spoon,object,no,32.0,-185.6,-32.0,-185.6,-0.173913043478,-1.11333333333,-32.0,185.6,-0.147793474183,65.0,-229.2,-65.0,-229.2,-0.353260869565,0.34,-65.0,229.2,-0.32714130027,-1000.0,-1000.0,-1000.0,-1000.0,-1000.0,-1000.0,-1000.0,-1000.0,-1000.0,-1000.0,-1000.0,-1000.0,-1000.0,-1000.0,-1000.0,-1000.0,-1000.0,-1000.0,-1000.0,-1000.0,-1000.0,-1000.0,-1000.0,-1000.0,-1000.0,-1000.0,-1000.0,184.0,30.0,-4.8060007503,-0.141352963244,-0.0261195692951,object_spoon.png,194.0,411.0,0.0,0.0,0.0,__dummy__PP12.asc__,0.0,-0.148298122882,50.0
480.488166254,1.0,control,2.0,kitchen,no,False,False,incompatible,('handle_right',,1.0,0.0,85.0,150.0,520.0,315.0,004A,undefined,PP12.asc,zero,right,416.948927131,black,32.0,B,control,25.0,50.0,4000.0,50.0,50.0,0.0,knife,False,0.0,13.0,asymm_kitchen_knife,3.0,1.0,left,3127197.0,-1000.0,-1000.0,-1000.0,-1000.0,-1000.0,-1000.0,-1000.0,-1000.0,36.0,3126602.0,509.6,187.6,3126566.0,168.067516195,495.8,355.1,16.0,3126790.0,489.9,156.6,3126774.0,38.3919262346,502.4,192.9,20.0,3126902.0,440.3,157.3,3126882.0,50.8701287594,490.7,164.2,-1000.0,-1000.0,-1000.0,-1000.0,-1000.0,-1000.0,-1000.0,-1000.0,-1000.0,-1000.0,-1000.0,-1000.0,-1000.0,-1000.0,-1000.0,-1000.0,-1000.0,-1000.0,-1000.0,-1000.0,-1000.0,-1000.0,-1000.0,-1000.0,-1000.0,-1000.0,-1000.0,-1000.0,-1000.0,-1000.0,-1000.0,-1000.0,-1000.0,-1000.0,-1000.0,-1000.0,-1000.0,-1000.0,-1000.0,-1000.0,-1000.0,-1000.0,-1000.0,-1000.0,-1000.0,-1000.0,-1000.0,-1000.0,3.0,3.0,yes,180.0,240.0,3126397.0,even,asymm,3125867.0,243.0,243.0,upper,228.0,6.0,0.0,-1.97018009304,0.0,228.0,right,knife,object,no,-2.4,-196.4,-2.4,-196.4,-0.0136363636364,-1.43636363636,-2.4,-196.4,-0.009904961945,-22.1,-227.4,-22.1,-227.4,-0.125568181818,-0.0272727272727,-22.1,-227.4,-0.121836780127,-71.7,-226.7,-71.7,-226.7,-0.407386363636,-0.0590909090909,-71.7,-226.7,-0.403654961945,-1000.0,-1000.0,-1000.0,-1000.0,-1000.0,-1000.0,-1000.0,-1000.0,-1000.0,-1000.0,-1000.0,-1000.0,-1000.0,-1000.0,-1000.0,-1000.0,-1000.0,-1000.0,176.0,22.0,-0.65672669768,-0.0193154911082,-0.00373140169136,object_knife.png,169.0,377.0,485.0,0.0,0.0,__dummy__PP12.asc__,0.0,-0.0104096106436,40.0
280.692881569,1.0,control,2.0,kitchen,no,False,False,incompatible,('handle_right',,1.0,0.0,85.0,150.0,7271.0,416.0,004A,undefined,PP12.asc,zero,right,451.252169711,black,32.0,B,control,25.0,50.0,4000.0,50.0,50.0,0.0,peeler,False,0.0,15.0,asymm_kitchen_peeler,4.0,1.0,left,3164176.0,-1000.0,-1000.0,-1000.0,-1000.0,-1000.0,-1000.0,-1000.0,-1000.0,46.0,3163755.0,524.5,558.1,3163709.0,194.196292447,536.9,364.3,21.0,3163954.0,483.2,592.8,3163933.0,30.2274709495,509.5,577.9,-1000.0,-1000.0,-1000.0,-1000.0,-1000.0,-1000.0,-1000.0,-1000.0,-1000.0,-1000.0,-1000.0,-1000.0,-1000.0,-1000.0,-1000.0,-1000.0,-1000.0,-1000.0,-1000.0,-1000.0,-1000.0,-1000.0,-1000.0,-1000.0,-1000.0,-1000.0,-1000.0,-1000.0,-1000.0,-1000.0,-1000.0,-1000.0,-1000.0,-1000.0,-1000.0,-1000.0,-1000.0,-1000.0,-1000.0,-1000.0,-1000.0,-1000.0,-1000.0,-1000.0,-1000.0,-1000.0,-1000.0,-1000.0,-1000.0,-1000.0,-1000.0,-1000.0,-1000.0,-1000.0,-1000.0,-1000.0,2.0,3.0,yes,180.0,240.0,3163472.0,even,asymm,3156191.0,247.0,247.0,lower,-230.0,-7.0,180.0,-0.384262651214,0.0,-230.0,right,peeler,object,no,-12.5,-174.1,12.5,-174.1,0.0868055555556,-2.32916666667,12.5,174.1,0.0876950524334,28.8,-208.8,-28.8,-208.8,-0.2,-0.883333333333,-28.8,208.8,-0.199110503122,-1000.0,-1000.0,-1000.0,-1000.0,-1000.0,-1000.0,-1000.0,-1000.0,-1000.0,-1000.0,-1000.0,-1000.0,-1000.0,-1000.0,-1000.0,-1000.0,-1000.0,-1000.0,-1000.0,-1000.0,-1000.0,-1000.0,-1000.0,-1000.0,-1000.0,-1000.0,-1000.0,144.0,24.0,-0.128087550405,-0.00376728089425,-0.00088949687781,object_peeler.png,237.0,461.0,0.0,0.0,0.0,__dummy__PP12.asc__,0.0,0.0871904037348,90.0
203.639640936,1.0,control,2.0,garage,no,False,False,compatible,('handle_right',,2.0,0.0,85.0,150.0,832.0,369.0,004A,undefined,PP12.asc,overlap,right,292.993874401,black,32.0,B,control,25.0,50.0,4000.0,50.0,50.0,0.0,screwdriver,False,0.0,15.0,asymm_garage_screwdriver,4.0,2.0,right,3168034.0,-1000.0,-1000.0,-1000.0,-1000.0,-1000.0,-1000.0,-1000.0,-1000.0,37.0,3167695.0,528.3,166.6,3167658.0,199.733447374,521.0,366.2,-1000.0,-1000.0,-1000.0,-1000.0,-1000.0,-1000.0,-1000.0,-1000.0,-1000.0,-1000.0,-1000.0,-1000.0,-1000.0,-1000.0,-1000.0,-1000.0,-1000.0,-1000.0,-1000.0,-1000.0,-1000.0,-1000.0,-1000.0,-1000.0,-1000.0,-1000.0,-1000.0,-1000.0,-1000.0,-1000.0,-1000.0,-1000.0,-1000.0,-1000.0,-1000.0,-1000.0,-1000.0,-1000.0,-1000.0,-1000.0,-1000.0,-1000.0,-1000.0,-1000.0,-1000.0,-1000.0,-1000.0,-1000.0,-1000.0,-1000.0,-1000.0,-1000.0,-1000.0,-1000.0,-1000.0,-1000.0,-1000.0,-1000.0,-1000.0,-1000.0,-1000.0,-1000.0,-1000.0,-1000.0,1.0,3.0,yes,180.0,240.0,3167452.0,even,asymm,3166612.0,248.0,248.0,upper,233.0,6.0,0.0,46.3571312645,0.0,233.0,right,screwdriver,object,no,16.3,-217.4,16.3,-217.4,0.0958823529412,-0.65,16.3,-217.4,0.00498601712843,-1000.0,-1000.0,-1000.0,-1000.0,-1000.0,-1000.0,-1000.0,-1000.0,-1000.0,-1000.0,-1000.0,-1000.0,-1000.0,-1000.0,-1000.0,-1000.0,-1000.0,-1000.0,-1000.0,-1000.0,-1000.0,-1000.0,-1000.0,-1000.0,-1000.0,-1000.0,-1000.0,-1000.0,-1000.0,-1000.0,-1000.0,-1000.0,-1000.0,-1000.0,-1000.0,-1000.0,170.0,24.0,15.4523770882,0.454481679064,0.0908963358127,object_screwdriver.png,206.0,0.0,0.0,0.0,0.0,__dummy__PP12.asc__,0.0,0.00448136842983,70.0
322.832504205,1.0,control,2.0,garage,no,False,False,incompatible,('handle_left',,2.0,0.0,85.0,150.0,822.0,425.0,004A,undefined,PP12.asc,overlap,left,450.36471224,black,32.0,D,control,25.0,50.0,4000.0,50.0,50.0,0.0,chisel,False,0.0,15.0,asymm_garage_chisel,4.0,2.0,right,3172286.0,-1000.0,-1000.0,-1000.0,-1000.0,-1000.0,-1000.0,-1000.0,-1000.0,43.0,3171866.0,496.4,545.4,3171823.0,188.428288747,510.5,357.5,-1000.0,-1000.0,-1000.0,-1000.0,-1000.0,-1000.0,-1000.0,-1000.0,-1000.0,-1000.0,-1000.0,-1000.0,-1000.0,-1000.0,-1000.0,-1000.0,-1000.0,-1000.0,-1000.0,-1000.0,-1000.0,-1000.0,-1000.0,-1000.0,-1000.0,-1000.0,-1000.0,-1000.0,-1000.0,-1000.0,-1000.0,-1000.0,-1000.0,-1000.0,-1000.0,-1000.0,-1000.0,-1000.0,-1000.0,-1000.0,-1000.0,-1000.0,-1000.0,-1000.0,-1000.0,-1000.0,-1000.0,-1000.0,-1000.0,-1000.0,-1000.0,-1000.0,-1000.0,-1000.0,-1000.0,-1000.0,-1000.0,-1000.0,-1000.0,-1000.0,-1000.0,-1000.0,-1000.0,-1000.0,1.0,3.0,yes,180.0,240.0,3171532.0,even,asymm,3170702.0,249.0,249.0,lower,-171.0,-6.0,180.0,-25.8224210823,0.0,-171.0,left,chisel,object,no,15.6,-161.4,15.6,-161.4,0.0886363636364,-0.331034482759,-15.6,161.4,0.137542464171,-1000.0,-1000.0,-1000.0,-1000.0,-1000.0,-1000.0,-1000.0,-1000.0,-1000.0,-1000.0,-1000.0,-1000.0,-1000.0,-1000.0,-1000.0,-1000.0,-1000.0,-1000.0,-1000.0,-1000.0,-1000.0,-1000.0,-1000.0,-1000.0,-1000.0,-1000.0,-1000.0,-1000.0,-1000.0,-1000.0,-1000.0,-1000.0,-1000.0,-1000.0,-1000.0,-1000.0,176.0,29.0,-8.6074736941,-0.253160991003,-0.0489061005347,object_chisel.png,291.0,0.0,0.0,0.0,0.0,__dummy__PP12.asc__,0.0,0.137037815472,90.0
1120.57942258,1.0,control,2.0,kitchen,no,False,False,incompatible,('handle_right',,1.0,0.0,85.0,150.0,513.0,1468.0,004A,undefined,PP12.asc,zero,right,394.854644642,black,32.0,B,control,25.0,50.0,4000.0,50.0,50.0,0.0,sharpeningsteel,False,0.0,15.0,asymm_kitchen_sharpeningsteel,4.0,1.0,left,3217972.0,-1000.0,-1000.0,-1000.0,-1000.0,-1000.0,-1000.0,-1000.0,-1000.0,29.0,3215634.0,532.4,528.7,3215605.0,151.414695456,514.9,378.3,-1000.0,-1000.0,-1000.0,-1000.0,-1000.0,-1000.0,-1000.0,-1000.0,-1000.0,-1000.0,-1000.0,-1000.0,-1000.0,-1000.0,-1000.0,-1000.0,-1000.0,-1000.0,-1000.0,-1000.0,-1000.0,-1000.0,-1000.0,-1000.0,-1000.0,-1000.0,-1000.0,-1000.0,-1000.0,-1000.0,-1000.0,-1000.0,-1000.0,-1000.0,-1000.0,-1000.0,-1000.0,-1000.0,-1000.0,-1000.0,-1000.0,-1000.0,-1000.0,-1000.0,-1000.0,-1000.0,-1000.0,-1000.0,-1000.0,-1000.0,-1000.0,-1000.0,-1000.0,-1000.0,-1000.0,-1000.0,-1000.0,-1000.0,-1000.0,-1000.0,-1000.0,-1000.0,-1000.0,-1000.0,1.0,3.0,yes,180.0,240.0,3215377.0,even,asymm,3214857.0,256.0,256.0,lower,-192.0,-6.0,180.0,28.4188527416,0.0,-192.0,right,sharpeningsteel,object,no,-20.4,-144.7,20.4,-144.7,0.11270718232,-1.892,20.4,144.7,0.06037043694,-1000.0,-1000.0,-1000.0,-1000.0,-1000.0,-1000.0,-1000.0,-1000.0,-1000.0,-1000.0,-1000.0,-1000.0,-1000.0,-1000.0,-1000.0,-1000.0,-1000.0,-1000.0,-1000.0,-1000.0,-1000.0,-1000.0,-1000.0,-1000.0,-1000.0,-1000.0,-1000.0,-1000.0,-1000.0,-1000.0,-1000.0,-1000.0,-1000.0,-1000.0,-1000.0,-1000.0,181.0,25.0,9.47295091387,0.278616203349,0.0523367453805,object_sharpeningsteel.png,228.0,0.0,0.0,0.0,0.0,__dummy__PP12.asc__,0.0,0.0598657882414,80.0
337.300063699,1.0,control,2.0,kitchen,no,False,False,incompatible,('handle_right',,1.0,0.0,85.0,150.0,608.0,301.0,004A,undefined,PP12.asc,zero,right,478.844883243,black,32.0,B,control,25.0,50.0,4000.0,50.0,50.0,0.0,spoon2,False,0.0,16.0,asymm_kitchen_spoon2,5.0,1.0,left,3295643.0,-1000.0,-1000.0,-1000.0,-1000.0,-1000.0,-1000.0,-1000.0,-1000.0,29.0,3295181.0,498.5,226.7,3295152.0,131.764942227,508.3,358.1,19.0,3295330.0,455.4,199.5,3295311.0,51.7041584401,494.0,233.9,-1000.0,-1000.0,-1000.0,-1000.0,-1000.0,-1000.0,-1000.0,-1000.0,-1000.0,-1000.0,-1000.0,-1000.0,-1000.0,-1000.0,-1000.0,-1000.0,-1000.0,-1000.0,-1000.0,-1000.0,-1000.0,-1000.0,-1000.0,-1000.0,-1000.0,-1000.0,-1000.0,-1000.0,-1000.0,-1000.0,-1000.0,-1000.0,-1000.0,-1000.0,-1000.0,-1000.0,-1000.0,-1000.0,-1000.0,-1000.0,-1000.0,-1000.0,-1000.0,-1000.0,-1000.0,-1000.0,-1000.0,-1000.0,-1000.0,-1000.0,-1000.0,-1000.0,-1000.0,-1000.0,-1000.0,-1000.0,2.0,3.0,yes,180.0,240.0,3294996.0,even,asymm,3294386.0,269.0,269.0,upper,193.0,5.0,0.0,-12.3796717148,0.0,193.0,right,spoon2,object,no,-13.5,-157.3,-13.5,-157.3,-0.0767045454545,-0.811363636364,-13.5,-157.3,-0.0532581975098,-56.6,-184.5,-56.6,-184.5,-0.321590909091,-0.193181818182,-56.6,-184.5,-0.298144561146,-1000.0,-1000.0,-1000.0,-1000.0,-1000.0,-1000.0,-1000.0,-1000.0,-1000.0,-1000.0,-1000.0,-1000.0,-1000.0,-1000.0,-1000.0,-1000.0,-1000.0,-1000.0,-1000.0,-1000.0,-1000.0,-1000.0,-1000.0,-1000.0,-1000.0,-1000.0,-1000.0,176.0,44.0,-4.12655723827,-0.121369330537,-0.0234463479447,object_spoon2.png,156.0,315.0,0.0,0.0,0.0,__dummy__PP12.asc__,0.0,-0.0537628462084,30.0
142.592906576,1.0,control,2.0,garage,no,False,False,compatible,('handle_right',,2.0,0.0,85.0,150.0,533.0,444.0,004A,undefined,PP12.asc,zero,right,415.999575439,black,32.0,B,control,25.0,50.0,4000.0,50.0,50.0,0.0,mallet,False,0.0,16.0,asymm_garage_mallet,5.0,2.0,right,3338843.0,-1000.0,-1000.0,-1000.0,-1000.0,-1000.0,-1000.0,-1000.0,-1000.0,48.0,3338568.0,479.8,561.8,3338520.0,181.193487742,512.6,383.6,-1000.0,-1000.0,-1000.0,-1000.0,-1000.0,-1000.0,-1000.0,-1000.0,-1000.0,-1000.0,-1000.0,-1000.0,-1000.0,-1000.0,-1000.0,-1000.0,-1000.0,-1000.0,-1000.0,-1000.0,-1000.0,-1000.0,-1000.0,-1000.0,-1000.0,-1000.0,-1000.0,-1000.0,-1000.0,-1000.0,-1000.0,-1000.0,-1000.0,-1000.0,-1000.0,-1000.0,-1000.0,-1000.0,-1000.0,-1000.0,-1000.0,-1000.0,-1000.0,-1000.0,-1000.0,-1000.0,-1000.0,-1000.0,-1000.0,-1000.0,-1000.0,-1000.0,-1000.0,-1000.0,-1000.0,-1000.0,-1000.0,-1000.0,-1000.0,-1000.0,-1000.0,-1000.0,-1000.0,-1000.0,1.0,3.0,yes,180.0,240.0,3338251.0,even,asymm,3337711.0,275.0,275.0,lower,-229.0,-7.0,180.0,-38.1359159379,0.0,-229.0,right,mallet,object,no,32.2,-177.8,-32.2,-177.8,-0.198765432099,-0.632098765432,-32.2,177.8,-0.120296469264,-1000.0,-1000.0,-1000.0,-1000.0,-1000.0,-1000.0,-1000.0,-1000.0,-1000.0,-1000.0,-1000.0,-1000.0,-1000.0,-1000.0,-1000.0,-1000.0,-1000.0,-1000.0,-1000.0,-1000.0,-1000.0,-1000.0,-1000.0,-1000.0,-1000.0,-1000.0,-1000.0,-1000.0,-1000.0,-1000.0,-1000.0,-1000.0,-1000.0,-1000.0,-1000.0,-1000.0,162.0,81.0,-12.7119719793,-0.373881528803,-0.0784689628352,object_mallet.png,269.0,0.0,0.0,0.0,0.0,__dummy__PP12.asc__,0.0,-0.120801117963,90.0
169.131615102,1.0,control,2.0,garage,no,False,False,compatible,('handle_right',,2.0,0.0,85.0,150.0,7635.0,519.0,004A,undefined,PP12.asc,overlap,right,315.409165884,black,32.0,B,control,25.0,50.0,4000.0,50.0,50.0,0.0,wrench,False,0.0,17.0,asymm_garage_wrench,6.0,2.0,right,3365708.0,-1000.0,-1000.0,-1000.0,-1000.0,-1000.0,-1000.0,-1000.0,-1000.0,32.0,3365286.0,505.6,210.9,3365254.0,156.273734197,500.8,367.1,22.0,3365435.0,439.4,178.8,3365413.0,67.6228511673,497.2,213.9,-1000.0,-1000.0,-1000.0,-1000.0,-1000.0,-1000.0,-1000.0,-1000.0,-1000.0,-1000.0,-1000.0,-1000.0,-1000.0,-1000.0,-1000.0,-1000.0,-1000.0,-1000.0,-1000.0,-1000.0,-1000.0,-1000.0,-1000.0,-1000.0,-1000.0,-1000.0,-1000.0,-1000.0,-1000.0,-1000.0,-1000.0,-1000.0,-1000.0,-1000.0,-1000.0,-1000.0,-1000.0,-1000.0,-1000.0,-1000.0,-1000.0,-1000.0,-1000.0,-1000.0,-1000.0,-1000.0,-1000.0,-1000.0,-1000.0,-1000.0,-1000.0,-1000.0,-1000.0,-1000.0,-1000.0,-1000.0,2.0,3.0,yes,180.0,240.0,3365014.0,even,asymm,3357373.0,277.0,277.0,upper,220.0,6.0,0.0,-22.3837053908,0.0,220.0,right,wrench,object,no,-6.4,-173.1,-6.4,-173.1,-0.0363636363636,-1.34,-6.4,-173.1,0.00602974505833,-72.6,-205.2,-72.6,-205.2,-0.4125,-0.422857142857,-72.6,-205.2,-0.370106618578,-1000.0,-1000.0,-1000.0,-1000.0,-1000.0,-1000.0,-1000.0,-1000.0,-1000.0,-1000.0,-1000.0,-1000.0,-1000.0,-1000.0,-1000.0,-1000.0,-1000.0,-1000.0,-1000.0,-1000.0,-1000.0,-1000.0,-1000.0,-1000.0,-1000.0,-1000.0,-1000.0,176.0,35.0,-7.46123513027,-0.219448092067,-0.042393381422,object_wrench.png,240.0,399.0,0.0,0.0,0.0,__dummy__PP12.asc__,0.0,0.00552509635973,90.0
