RT,accuracy,aff_lum,block_count,cat,catch_trial,checkFixDotFailed,checkObjectFailed,comp,cond,correct_response,count_trial_sequence,cutoff_warning_msg,dev_for_warning,durCheck1,durCheck2,expId,eye_used,file,gap,handle_side,jitter_dur,large_fix_col,large_fix_size,latin_square_letter,mask_side,max_dev_fix,max_dev_object,max_samples,min_samples_fix,min_samples_object,n_blink,object,offlineDriftCorr,outlier,overall_rep,picture_name,rep,response,response_hand,rtOnset,sacc10_duration,sacc10_eTime,sacc10_ex,sacc10_ey,sacc10_sTime,sacc10_size,sacc10_sx,sacc10_sy,sacc1_duration,sacc1_eTime,sacc1_ex,sacc1_ey,sacc1_sTime,sacc1_size,sacc1_sx,sacc1_sy,sacc2_duration,sacc2_eTime,sacc2_ex,sacc2_ey,sacc2_sTime,sacc2_size,sacc2_sx,sacc2_sy,sacc3_duration,sacc3_eTime,sacc3_ex,sacc3_ey,sacc3_sTime,sacc3_size,sacc3_sx,sacc3_sy,sacc4_duration,sacc4_eTime,sacc4_ex,sacc4_ey,sacc4_sTime,sacc4_size,sacc4_sx,sacc4_sy,sacc5_duration,sacc5_eTime,sacc5_ex,sacc5_ey,sacc5_sTime,sacc5_size,sacc5_sx,sacc5_sy,sacc6_duration,sacc6_eTime,sacc6_ex,sacc6_ey,sacc6_sTime,sacc6_size,sacc6_sx,sacc6_sy,sacc7_duration,sacc7_eTime,sacc7_ex,sacc7_ey,sacc7_sTime,sacc7_size,sacc7_sx,sacc7_sy,sacc8_duration,sacc8_eTime,sacc8_ex,sacc8_ey,sacc8_sTime,sacc8_size,sacc8_sx,sacc8_sy,sacc9_duration,sacc9_eTime,sacc9_ex,sacc9_ey,sacc9_sTime,sacc9_size,sacc9_sx,sacc9_sy,saccCount,scale,scale_item,scaled_height,scaled_width,stim_onset,subject_parity,symm,timestampFixOnset,trialId,trial_count,visual_field,y_stim,y_stim_degrees,realAngle,xCog,xStim,yStim,flip,stim_name,stim_type,xRot1,yRot1,xFlipped1,yFlipped1,xNorm1,yNorm1,xNormOnCenter1,yNormOnCenter1,xNormCorr1,xRot2,yRot2,xFlipped2,yFlipped2,xNorm2,yNorm2,xNormOnCenter2,yNormOnCenter2,xNormCorr2,xRot3,yRot3,xFlipped3,yFlipped3,xNorm3,yNorm3,xNormOnCenter3,yNormOnCenter3,xNormCorr3,xRot4,yRot4,xFlipped4,yFlipped4,xNorm4,yNorm4,xNormOnCenter4,yNormOnCenter4,xNormCorr4,xRot5,yRot5,xFlipped5,yFlipped5,xNorm5,yNorm5,xNormOnCenter5,yNormOnCenter5,xNormCorr5,wBoxScaled,hBoxScaled,xCogScaled,xCogScaledDegr,xCogNorm,stimFile,saccLat1,saccLat2,saccLat3,saccLat4,saccLat5
968.807416486,1.0,control,0.0,garage,no,False,False,incompatible,('handle_left',,7.0,0.0,85.0,150.0,552.0,384.0,004A,undefined,SS06.asc,zero,left,436.390708588,black,32.0,C,control,25.0,50.0,4000.0,50.0,50.0,0.0,wrench,False,0.0,1.0,asymm_garage_wrench,1.0,7.0,right,13983412.0,-1000.0,-1000.0,-1000.0,-1000.0,-1000.0,-1000.0,-1000.0,-1000.0,36.0,13982293.0,518.7,581.7,13982257.0,213.178845104,482.6,371.6,17.0,13982504.0,558.3,577.7,13982487.0,41.4290960558,517.4,584.3,-1000.0,-1000.0,-1000.0,-1000.0,-1000.0,-1000.0,-1000.0,-1000.0,-1000.0,-1000.0,-1000.0,-1000.0,-1000.0,-1000.0,-1000.0,-1000.0,-1000.0,-1000.0,-1000.0,-1000.0,-1000.0,-1000.0,-1000.0,-1000.0,-1000.0,-1000.0,-1000.0,-1000.0,-1000.0,-1000.0,-1000.0,-1000.0,-1000.0,-1000.0,-1000.0,-1000.0,-1000.0,-1000.0,-1000.0,-1000.0,-1000.0,-1000.0,-1000.0,-1000.0,-1000.0,-1000.0,-1000.0,-1000.0,-1000.0,-1000.0,-1000.0,-1000.0,-1000.0,-1000.0,-1000.0,-1000.0,2.0,3.0,yes,180.0,240.0,13982058.0,even,asymm,13981497.0,0.0,0.0,lower,-211.0,-7.0,180.0,21.1258078553,0.0,-211.0,left,wrench,object,-6.7,-197.7,-6.7,-197.7,-0.0380681818182,-0.38,6.7,197.7,-0.0780791815441,-46.3,-193.7,-46.3,-193.7,-0.263068181818,-0.494285714286,46.3,193.7,-0.303079181544,-1000.0,-1000.0,-1000.0,-1000.0,-1000.0,-1000.0,-1000.0,-1000.0,-1000.0,-1000.0,-1000.0,-1000.0,-1000.0,-1000.0,-1000.0,-1000.0,-1000.0,-1000.0,-1000.0,-1000.0,-1000.0,-1000.0,-1000.0,-1000.0,-1000.0,-1000.0,-1000.0,176.0,35.0,7.04193595177,0.207115763287,0.0400109997259,object_wrench.png,199.0,429.0,0.0,0.0,0.0
189.151440967,1.0,control,0.0,kitchen,no,False,False,incompatible,('handle_right',,6.0,0.0,85.0,150.0,529.0,500.0,004A,undefined,SS06.asc,overlap,right,383.69055352,black,32.0,B,control,25.0,50.0,4000.0,50.0,50.0,0.0,spoon,False,0.0,1.0,asymm_kitchen_spoon,1.0,6.0,left,13995580.0,-1000.0,-1000.0,-1000.0,-1000.0,-1000.0,-1000.0,-1000.0,-1000.0,39.0,13995241.0,479.7,607.7,13995202.0,227.865442751,492.6,380.2,-1000.0,-1000.0,-1000.0,-1000.0,-1000.0,-1000.0,-1000.0,-1000.0,-1000.0,-1000.0,-1000.0,-1000.0,-1000.0,-1000.0,-1000.0,-1000.0,-1000.0,-1000.0,-1000.0,-1000.0,-1000.0,-1000.0,-1000.0,-1000.0,-1000.0,-1000.0,-1000.0,-1000.0,-1000.0,-1000.0,-1000.0,-1000.0,-1000.0,-1000.0,-1000.0,-1000.0,-1000.0,-1000.0,-1000.0,-1000.0,-1000.0,-1000.0,-1000.0,-1000.0,-1000.0,-1000.0,-1000.0,-1000.0,-1000.0,-1000.0,-1000.0,-1000.0,-1000.0,-1000.0,-1000.0,-1000.0,-1000.0,-1000.0,-1000.0,-1000.0,-1000.0,-1000.0,-1000.0,-1000.0,1.0,3.0,yes,180.0,240.0,13994889.0,even,asymm,13994349.0,3.0,3.0,lower,-236.0,-7.0,180.0,-13.4578679943,0.0,-236.0,right,spoon,object,32.3,-223.7,-32.3,-223.7,-0.175543478261,-0.41,-32.3,223.7,-0.151163282619,-1000.0,-1000.0,-1000.0,-1000.0,-1000.0,-1000.0,-1000.0,-1000.0,-1000.0,-1000.0,-1000.0,-1000.0,-1000.0,-1000.0,-1000.0,-1000.0,-1000.0,-1000.0,-1000.0,-1000.0,-1000.0,-1000.0,-1000.0,-1000.0,-1000.0,-1000.0,-1000.0,-1000.0,-1000.0,-1000.0,-1000.0,-1000.0,-1000.0,-1000.0,-1000.0,-1000.0,184.0,30.0,-4.4859559981,-0.131939882297,-0.0243801956418,object_spoon.png,313.0,0.0,0.0,0.0,0.0
818.058958955,1.0,control,0.0,kitchen,no,False,False,incompatible,('handle_right',,6.0,0.0,85.0,150.0,506.0,375.0,004A,undefined,SS06.asc,zero,right,355.243263637,black,32.0,B,control,25.0,50.0,4000.0,50.0,50.0,0.0,washingbrush,False,0.0,1.0,asymm_kitchen_washingbrush,1.0,6.0,left,14021407.0,-1000.0,-1000.0,-1000.0,-1000.0,-1000.0,-1000.0,-1000.0,-1000.0,37.0,14020437.0,515.1,186.2,14020400.0,206.858043112,510.2,393.0,17.0,14020611.0,464.3,184.6,14020594.0,44.5624281206,506.8,198.0,-1000.0,-1000.0,-1000.0,-1000.0,-1000.0,-1000.0,-1000.0,-1000.0,-1000.0,-1000.0,-1000.0,-1000.0,-1000.0,-1000.0,-1000.0,-1000.0,-1000.0,-1000.0,-1000.0,-1000.0,-1000.0,-1000.0,-1000.0,-1000.0,-1000.0,-1000.0,-1000.0,-1000.0,-1000.0,-1000.0,-1000.0,-1000.0,-1000.0,-1000.0,-1000.0,-1000.0,-1000.0,-1000.0,-1000.0,-1000.0,-1000.0,-1000.0,-1000.0,-1000.0,-1000.0,-1000.0,-1000.0,-1000.0,-1000.0,-1000.0,-1000.0,-1000.0,-1000.0,-1000.0,-1000.0,-1000.0,2.0,3.0,yes,180.0,240.0,14020212.0,even,asymm,14019702.0,9.0,9.0,upper,196.0,5.0,0.0,-30.890600737,0.0,196.0,right,washingbrush,object,3.1,-197.8,3.1,-197.8,0.0176136363636,0.0409090909091,3.1,-197.8,0.0761185620019,-47.7,-199.4,-47.7,-199.4,-0.271022727273,0.0772727272727,-47.7,-199.4,-0.212517801634,-1000.0,-1000.0,-1000.0,-1000.0,-1000.0,-1000.0,-1000.0,-1000.0,-1000.0,-1000.0,-1000.0,-1000.0,-1000.0,-1000.0,-1000.0,-1000.0,-1000.0,-1000.0,-1000.0,-1000.0,-1000.0,-1000.0,-1000.0,-1000.0,-1000.0,-1000.0,-1000.0,176.0,44.0,-10.2968669123,-0.302849026833,-0.0585049256383,object_washingbrush.png,188.0,382.0,0.0,0.0,0.0
730.826896038,1.0,control,0.0,kitchen,no,False,False,incompatible,('handle_right',,6.0,0.0,85.0,150.0,558.0,407.0,004A,undefined,SS06.asc,zero,right,438.292764572,black,32.0,B,control,25.0,50.0,4000.0,50.0,50.0,0.0,knife,False,0.0,1.0,asymm_kitchen_knife,1.0,6.0,left,14081218.0,-1000.0,-1000.0,-1000.0,-1000.0,-1000.0,-1000.0,-1000.0,-1000.0,31.0,14080332.0,500.3,550.1,14080301.0,184.340554409,489.1,366.1,14.0,14080536.0,520.3,591.6,14080522.0,36.6994550368,500.5,560.7,10.0,14080773.0,540.7,589.6,14080763.0,22.5390771772,518.3,592.1,-1000.0,-1000.0,-1000.0,-1000.0,-1000.0,-1000.0,-1000.0,-1000.0,-1000.0,-1000.0,-1000.0,-1000.0,-1000.0,-1000.0,-1000.0,-1000.0,-1000.0,-1000.0,-1000.0,-1000.0,-1000.0,-1000.0,-1000.0,-1000.0,-1000.0,-1000.0,-1000.0,-1000.0,-1000.0,-1000.0,-1000.0,-1000.0,-1000.0,-1000.0,-1000.0,-1000.0,-1000.0,-1000.0,-1000.0,-1000.0,-1000.0,-1000.0,-1000.0,-1000.0,-1000.0,-1000.0,-1000.0,-1000.0,3.0,3.0,yes,180.0,240.0,14080078.0,even,asymm,14079518.0,18.0,18.0,lower,-197.0,-6.0,180.0,1.81524104517,0.0,-197.0,right,knife,object,11.7,-166.1,-11.7,-166.1,-0.0664772727273,-1.40454545455,-11.7,166.1,-0.0699152292522,-8.3,-207.6,8.3,-207.6,0.0471590909091,0.481818181818,8.3,207.6,0.0437211343841,-28.7,-205.6,28.7,-205.6,0.163068181818,0.390909090909,28.7,205.6,0.159630225293,-1000.0,-1000.0,-1000.0,-1000.0,-1000.0,-1000.0,-1000.0,-1000.0,-1000.0,-1000.0,-1000.0,-1000.0,-1000.0,-1000.0,-1000.0,-1000.0,-1000.0,-1000.0,176.0,22.0,0.60508034839,0.017796480835,0.00343795652494,object_knife.png,223.0,444.0,685.0,0.0,0.0
515.180779092,1.0,control,0.0,garage,no,False,False,compatible,('handle_right',,7.0,0.0,85.0,150.0,564.0,458.0,004A,undefined,SS06.asc,overlap,right,455.386825088,black,32.0,B,control,25.0,50.0,4000.0,50.0,50.0,0.0,hammer,False,0.0,2.0,asymm_garage_hammer,2.0,7.0,right,14155441.0,-1000.0,-1000.0,-1000.0,-1000.0,-1000.0,-1000.0,-1000.0,-1000.0,33.0,14154781.0,469.5,569.9,14154748.0,174.431333194,491.8,396.9,-1000.0,-1000.0,-1000.0,-1000.0,-1000.0,-1000.0,-1000.0,-1000.0,-1000.0,-1000.0,-1000.0,-1000.0,-1000.0,-1000.0,-1000.0,-1000.0,-1000.0,-1000.0,-1000.0,-1000.0,-1000.0,-1000.0,-1000.0,-1000.0,-1000.0,-1000.0,-1000.0,-1000.0,-1000.0,-1000.0,-1000.0,-1000.0,-1000.0,-1000.0,-1000.0,-1000.0,-1000.0,-1000.0,-1000.0,-1000.0,-1000.0,-1000.0,-1000.0,-1000.0,-1000.0,-1000.0,-1000.0,-1000.0,-1000.0,-1000.0,-1000.0,-1000.0,-1000.0,-1000.0,-1000.0,-1000.0,-1000.0,-1000.0,-1000.0,-1000.0,-1000.0,-1000.0,-1000.0,-1000.0,1.0,3.0,yes,180.0,240.0,14154466.0,even,asymm,14153896.0,26.0,26.0,lower,-192.0,-6.0,180.0,-49.2380396484,0.0,-192.0,right,hammer,object,42.5,-185.9,-42.5,-185.9,-0.257575757576,-0.0743902439024,-42.5,185.9,-0.158104970407,-1000.0,-1000.0,-1000.0,-1000.0,-1000.0,-1000.0,-1000.0,-1000.0,-1000.0,-1000.0,-1000.0,-1000.0,-1000.0,-1000.0,-1000.0,-1000.0,-1000.0,-1000.0,-1000.0,-1000.0,-1000.0,-1000.0,-1000.0,-1000.0,-1000.0,-1000.0,-1000.0,-1000.0,-1000.0,-1000.0,-1000.0,-1000.0,-1000.0,-1000.0,-1000.0,-1000.0,165.0,82.0,-16.4126798828,-0.482725878906,-0.0994707871685,object_hammer.png,282.0,0.0,0.0,0.0,0.0
549.922821633,1.0,control,0.0,garage,no,False,False,compatible,('handle_right',,7.0,0.0,85.0,150.0,497.0,516.0,004A,undefined,SS06.asc,overlap,right,345.609714841,black,32.0,B,control,25.0,50.0,4000.0,50.0,50.0,0.0,chisel,False,0.0,2.0,asymm_garage_chisel,2.0,7.0,right,14168346.0,-1000.0,-1000.0,-1000.0,-1000.0,-1000.0,-1000.0,-1000.0,-1000.0,52.0,14167639.0,535.2,161.0,14167587.0,229.203883039,487.1,385.1,11.0,14167895.0,524.0,139.1,14167884.0,22.5800797164,537.5,157.2,-1000.0,-1000.0,-1000.0,-1000.0,-1000.0,-1000.0,-1000.0,-1000.0,-1000.0,-1000.0,-1000.0,-1000.0,-1000.0,-1000.0,-1000.0,-1000.0,-1000.0,-1000.0,-1000.0,-1000.0,-1000.0,-1000.0,-1000.0,-1000.0,-1000.0,-1000.0,-1000.0,-1000.0,-1000.0,-1000.0,-1000.0,-1000.0,-1000.0,-1000.0,-1000.0,-1000.0,-1000.0,-1000.0,-1000.0,-1000.0,-1000.0,-1000.0,-1000.0,-1000.0,-1000.0,-1000.0,-1000.0,-1000.0,-1000.0,-1000.0,-1000.0,-1000.0,-1000.0,-1000.0,-1000.0,-1000.0,2.0,3.0,yes,180.0,240.0,14167278.0,even,asymm,14166778.0,29.0,29.0,upper,197.0,5.0,0.0,24.5764355818,0.0,197.0,right,chisel,object,23.2,-223.0,23.2,-223.0,0.131818181818,0.896551724138,23.2,-223.0,0.0852719023072,12.0,-244.9,12.0,-244.9,0.0681818181818,1.65172413793,12.0,-244.9,0.0216355386708,-1000.0,-1000.0,-1000.0,-1000.0,-1000.0,-1000.0,-1000.0,-1000.0,-1000.0,-1000.0,-1000.0,-1000.0,-1000.0,-1000.0,-1000.0,-1000.0,-1000.0,-1000.0,-1000.0,-1000.0,-1000.0,-1000.0,-1000.0,-1000.0,-1000.0,-1000.0,-1000.0,176.0,29.0,8.19214519393,0.24094544688,0.046546279511,object_chisel.png,309.0,606.0,0.0,0.0,0.0
603.901116533,1.0,control,0.0,kitchen,no,False,False,compatible,('handle_left',,6.0,0.0,85.0,150.0,594.0,405.0,004A,undefined,SS06.asc,zero,left,444.775326338,black,32.0,C,control,25.0,50.0,4000.0,50.0,50.0,0.0,washingbrush,False,0.0,2.0,asymm_kitchen_washingbrush,2.0,6.0,left,14178050.0,-1000.0,-1000.0,-1000.0,-1000.0,-1000.0,-1000.0,-1000.0,-1000.0,48.0,14177291.0,550.1,147.2,14177243.0,250.654283825,496.7,392.1,16.0,14177461.0,579.0,130.4,14177445.0,35.5406809164,550.7,151.9,-1000.0,-1000.0,-1000.0,-1000.0,-1000.0,-1000.0,-1000.0,-1000.0,-1000.0,-1000.0,-1000.0,-1000.0,-1000.0,-1000.0,-1000.0,-1000.0,-1000.0,-1000.0,-1000.0,-1000.0,-1000.0,-1000.0,-1000.0,-1000.0,-1000.0,-1000.0,-1000.0,-1000.0,-1000.0,-1000.0,-1000.0,-1000.0,-1000.0,-1000.0,-1000.0,-1000.0,-1000.0,-1000.0,-1000.0,-1000.0,-1000.0,-1000.0,-1000.0,-1000.0,-1000.0,-1000.0,-1000.0,-1000.0,-1000.0,-1000.0,-1000.0,-1000.0,-1000.0,-1000.0,-1000.0,-1000.0,2.0,3.0,yes,180.0,240.0,14177039.0,even,asymm,14176439.0,31.0,31.0,upper,205.0,6.0,0.0,30.890600737,0.0,205.0,left,washingbrush,object,38.1,-236.8,-38.1,-236.8,-0.216477272727,0.722727272727,38.1,-236.8,-0.274982198366,67.0,-253.6,-67.0,-253.6,-0.380681818182,1.10454545455,67.0,-253.6,-0.43918674382,-1000.0,-1000.0,-1000.0,-1000.0,-1000.0,-1000.0,-1000.0,-1000.0,-1000.0,-1000.0,-1000.0,-1000.0,-1000.0,-1000.0,-1000.0,-1000.0,-1000.0,-1000.0,-1000.0,-1000.0,-1000.0,-1000.0,-1000.0,-1000.0,-1000.0,-1000.0,-1000.0,176.0,44.0,10.2968669123,0.302849026833,0.0585049256383,object_washingbrush.png,204.0,406.0,0.0,0.0,0.0
437.349060533,1.0,control,0.0,garage,no,False,False,compatible,('handle_right',,7.0,0.0,85.0,150.0,521.0,440.0,004A,undefined,SS06.asc,zero,right,368.428168768,black,32.0,B,control,25.0,50.0,4000.0,50.0,50.0,0.0,mallet,False,0.0,2.0,asymm_garage_mallet,2.0,7.0,right,14191199.0,-1000.0,-1000.0,-1000.0,-1000.0,-1000.0,-1000.0,-1000.0,-1000.0,33.0,14190609.0,462.1,548.6,14190576.0,165.418378665,489.1,385.4,-1000.0,-1000.0,-1000.0,-1000.0,-1000.0,-1000.0,-1000.0,-1000.0,-1000.0,-1000.0,-1000.0,-1000.0,-1000.0,-1000.0,-1000.0,-1000.0,-1000.0,-1000.0,-1000.0,-1000.0,-1000.0,-1000.0,-1000.0,-1000.0,-1000.0,-1000.0,-1000.0,-1000.0,-1000.0,-1000.0,-1000.0,-1000.0,-1000.0,-1000.0,-1000.0,-1000.0,-1000.0,-1000.0,-1000.0,-1000.0,-1000.0,-1000.0,-1000.0,-1000.0,-1000.0,-1000.0,-1000.0,-1000.0,-1000.0,-1000.0,-1000.0,-1000.0,-1000.0,-1000.0,-1000.0,-1000.0,-1000.0,-1000.0,-1000.0,-1000.0,-1000.0,-1000.0,-1000.0,-1000.0,1.0,3.0,yes,180.0,240.0,14190320.0,even,asymm,14189790.0,33.0,33.0,lower,-174.0,-6.0,180.0,-36.4525052012,0.0,-174.0,right,mallet,object,49.9,-164.6,-49.9,-164.6,-0.308024691358,-0.116049382716,-49.9,164.6,-0.233019536623,-1000.0,-1000.0,-1000.0,-1000.0,-1000.0,-1000.0,-1000.0,-1000.0,-1000.0,-1000.0,-1000.0,-1000.0,-1000.0,-1000.0,-1000.0,-1000.0,-1000.0,-1000.0,-1000.0,-1000.0,-1000.0,-1000.0,-1000.0,-1000.0,-1000.0,-1000.0,-1000.0,-1000.0,-1000.0,-1000.0,-1000.0,-1000.0,-1000.0,-1000.0,-1000.0,-1000.0,162.0,81.0,-12.1508350671,-0.357377501973,-0.075005154735,object_mallet.png,256.0,0.0,0.0,0.0,0.0
463.195792513,1.0,control,0.0,kitchen,no,False,False,compatible,('handle_left',,6.0,0.0,85.0,150.0,915.0,413.0,004A,undefined,SS06.asc,zero,left,508.431742978,black,32.0,C,control,25.0,50.0,4000.0,50.0,50.0,1.0,knife,False,0.0,2.0,asymm_kitchen_knife,2.0,6.0,left,14250305.0,-1000.0,-1000.0,-1000.0,-1000.0,-1000.0,-1000.0,-1000.0,-1000.0,35.0,14249690.0,467.9,584.5,14249655.0,199.351197639,484.0,385.8,23.0,14249954.0,526.0,604.6,14249931.0,53.4607332535,474.6,589.9,-1000.0,-1000.0,-1000.0,-1000.0,-1000.0,-1000.0,-1000.0,-1000.0,-1000.0,-1000.0,-1000.0,-1000.0,-1000.0,-1000.0,-1000.0,-1000.0,-1000.0,-1000.0,-1000.0,-1000.0,-1000.0,-1000.0,-1000.0,-1000.0,-1000.0,-1000.0,-1000.0,-1000.0,-1000.0,-1000.0,-1000.0,-1000.0,-1000.0,-1000.0,-1000.0,-1000.0,-1000.0,-1000.0,-1000.0,-1000.0,-1000.0,-1000.0,-1000.0,-1000.0,-1000.0,-1000.0,-1000.0,-1000.0,-1000.0,-1000.0,-1000.0,-1000.0,-1000.0,-1000.0,-1000.0,-1000.0,2.0,3.0,yes,180.0,240.0,14249427.0,even,asymm,14248507.0,40.0,40.0,lower,-213.0,-7.0,180.0,-1.81524104517,0.0,-213.0,left,knife,object,44.1,-200.5,44.1,-200.5,0.250568181818,-0.568181818182,-44.1,200.5,0.254006138343,-14.0,-220.6,-14.0,-220.6,-0.0795454545455,0.345454545455,14.0,220.6,-0.0761074980205,-1000.0,-1000.0,-1000.0,-1000.0,-1000.0,-1000.0,-1000.0,-1000.0,-1000.0,-1000.0,-1000.0,-1000.0,-1000.0,-1000.0,-1000.0,-1000.0,-1000.0,-1000.0,-1000.0,-1000.0,-1000.0,-1000.0,-1000.0,-1000.0,-1000.0,-1000.0,-1000.0,176.0,22.0,-0.60508034839,-0.017796480835,-0.00343795652494,object_knife.png,228.0,504.0,0.0,0.0,0.0
928.976085894,1.0,control,0.0,kitchen,no,False,False,incompatible,('handle_right',,6.0,0.0,85.0,150.0,555.0,383.0,004A,undefined,SS06.asc,zero,right,450.66291366,black,32.0,B,control,25.0,50.0,4000.0,50.0,50.0,0.0,spoon2,False,0.0,3.0,asymm_kitchen_spoon2,3.0,6.0,left,14259911.0,-1000.0,-1000.0,-1000.0,-1000.0,-1000.0,-1000.0,-1000.0,-1000.0,36.0,14258835.0,475.7,585.3,14258799.0,203.718948554,492.8,382.3,15.0,14258973.0,475.7,615.7,14258958.0,35.1035610729,475.2,580.6,18.0,14259360.0,450.9,626.1,14259342.0,25.367104683,475.9,621.8,-1000.0,-1000.0,-1000.0,-1000.0,-1000.0,-1000.0,-1000.0,-1000.0,-1000.0,-1000.0,-1000.0,-1000.0,-1000.0,-1000.0,-1000.0,-1000.0,-1000.0,-1000.0,-1000.0,-1000.0,-1000.0,-1000.0,-1000.0,-1000.0,-1000.0,-1000.0,-1000.0,-1000.0,-1000.0,-1000.0,-1000.0,-1000.0,-1000.0,-1000.0,-1000.0,-1000.0,-1000.0,-1000.0,-1000.0,-1000.0,-1000.0,-1000.0,-1000.0,-1000.0,-1000.0,-1000.0,-1000.0,-1000.0,3.0,3.0,yes,180.0,240.0,14258598.0,even,asymm,14258037.0,42.0,42.0,lower,-223.0,-7.0,180.0,-12.0262630064,0.0,-223.0,right,spoon2,object,36.3,-201.3,-36.3,-201.3,-0.20625,-0.493181818182,-36.3,201.3,-0.18347298673,36.3,-231.7,-36.3,-231.7,-0.20625,0.197727272727,-36.3,231.7,-0.18347298673,61.1,-242.1,-61.1,-242.1,-0.347159090909,0.434090909091,-61.1,242.1,-0.324382077639,-1000.0,-1000.0,-1000.0,-1000.0,-1000.0,-1000.0,-1000.0,-1000.0,-1000.0,-1000.0,-1000.0,-1000.0,-1000.0,-1000.0,-1000.0,-1000.0,-1000.0,-1000.0,176.0,44.0,-4.00875433547,-0.117904539278,-0.0227770132697,object_spoon2.png,201.0,360.0,744.0,0.0,0.0
479.459973985,1.0,control,0.0,garage,no,False,False,incompatible,('handle_left',,7.0,0.0,85.0,150.0,502.0,447.0,004A,undefined,SS06.asc,zero,left,353.736367266,black,32.0,C,control,25.0,50.0,4000.0,50.0,50.0,0.0,hammer,False,0.0,3.0,asymm_garage_hammer,3.0,7.0,right,14264326.0,-1000.0,-1000.0,-1000.0,-1000.0,-1000.0,-1000.0,-1000.0,-1000.0,35.0,14263693.0,523.2,554.3,14263658.0,166.783602311,496.3,389.7,-1000.0,-1000.0,-1000.0,-1000.0,-1000.0,-1000.0,-1000.0,-1000.0,-1000.0,-1000.0,-1000.0,-1000.0,-1000.0,-1000.0,-1000.0,-1000.0,-1000.0,-1000.0,-1000.0,-1000.0,-1000.0,-1000.0,-1000.0,-1000.0,-1000.0,-1000.0,-1000.0,-1000.0,-1000.0,-1000.0,-1000.0,-1000.0,-1000.0,-1000.0,-1000.0,-1000.0,-1000.0,-1000.0,-1000.0,-1000.0,-1000.0,-1000.0,-1000.0,-1000.0,-1000.0,-1000.0,-1000.0,-1000.0,-1000.0,-1000.0,-1000.0,-1000.0,-1000.0,-1000.0,-1000.0,-1000.0,-1000.0,-1000.0,-1000.0,-1000.0,-1000.0,-1000.0,-1000.0,-1000.0,1.0,3.0,yes,180.0,240.0,14263398.0,even,asymm,14262888.0,43.0,43.0,lower,-197.0,-6.0,180.0,49.2380396484,0.0,-197.0,left,hammer,object,-11.2,-170.3,-11.2,-170.3,-0.0678787878788,-0.325609756098,11.2,170.3,-0.167349575047,-1000.0,-1000.0,-1000.0,-1000.0,-1000.0,-1000.0,-1000.0,-1000.0,-1000.0,-1000.0,-1000.0,-1000.0,-1000.0,-1000.0,-1000.0,-1000.0,-1000.0,-1000.0,-1000.0,-1000.0,-1000.0,-1000.0,-1000.0,-1000.0,-1000.0,-1000.0,-1000.0,-1000.0,-1000.0,-1000.0,-1000.0,-1000.0,-1000.0,-1000.0,-1000.0,-1000.0,165.0,82.0,16.4126798828,0.482725878906,0.0994707871685,object_hammer.png,260.0,0.0,0.0,0.0,0.0
420.866781453,1.0,control,0.0,garage,no,False,False,incompatible,('handle_left',,7.0,0.0,85.0,150.0,540.0,515.0,004A,undefined,SS06.asc,overlap,left,407.82856932,black,32.0,C,control,25.0,50.0,4000.0,50.0,50.0,0.0,chisel,False,0.0,3.0,asymm_garage_chisel,3.0,7.0,right,14307381.0,-1000.0,-1000.0,-1000.0,-1000.0,-1000.0,-1000.0,-1000.0,-1000.0,31.0,14306819.0,471.4,553.7,14306788.0,159.165071545,484.8,395.1,-1000.0,-1000.0,-1000.0,-1000.0,-1000.0,-1000.0,-1000.0,-1000.0,-1000.0,-1000.0,-1000.0,-1000.0,-1000.0,-1000.0,-1000.0,-1000.0,-1000.0,-1000.0,-1000.0,-1000.0,-1000.0,-1000.0,-1000.0,-1000.0,-1000.0,-1000.0,-1000.0,-1000.0,-1000.0,-1000.0,-1000.0,-1000.0,-1000.0,-1000.0,-1000.0,-1000.0,-1000.0,-1000.0,-1000.0,-1000.0,-1000.0,-1000.0,-1000.0,-1000.0,-1000.0,-1000.0,-1000.0,-1000.0,-1000.0,-1000.0,-1000.0,-1000.0,-1000.0,-1000.0,-1000.0,-1000.0,-1000.0,-1000.0,-1000.0,-1000.0,-1000.0,-1000.0,-1000.0,-1000.0,1.0,3.0,yes,180.0,240.0,14306443.0,even,asymm,14305893.0,51.0,51.0,lower,-178.0,-6.0,180.0,-24.5764355818,0.0,-178.0,left,chisel,object,40.6,-169.7,40.6,-169.7,0.230681818182,-0.286206896552,-40.6,169.7,0.277228097693,-1000.0,-1000.0,-1000.0,-1000.0,-1000.0,-1000.0,-1000.0,-1000.0,-1000.0,-1000.0,-1000.0,-1000.0,-1000.0,-1000.0,-1000.0,-1000.0,-1000.0,-1000.0,-1000.0,-1000.0,-1000.0,-1000.0,-1000.0,-1000.0,-1000.0,-1000.0,-1000.0,-1000.0,-1000.0,-1000.0,-1000.0,-1000.0,-1000.0,-1000.0,-1000.0,-1000.0,176.0,29.0,-8.19214519393,-0.24094544688,-0.046546279511,object_chisel.png,345.0,0.0,0.0,0.0,0.0
644.189950451,1.0,control,0.0,kitchen,no,False,False,incompatible,('handle_right',,6.0,0.0,85.0,150.0,484.0,493.0,004A,undefined,SS06.asc,overlap,right,335.402920665,black,32.0,B,control,25.0,50.0,4000.0,50.0,50.0,0.0,peeler,False,0.0,4.0,asymm_kitchen_peeler,4.0,6.0,left,14311462.0,-1000.0,-1000.0,-1000.0,-1000.0,-1000.0,-1000.0,-1000.0,-1000.0,30.0,14310666.0,468.3,552.3,14310636.0,161.247170518,489.1,392.4,-1000.0,-1000.0,-1000.0,-1000.0,-1000.0,-1000.0,-1000.0,-1000.0,-1000.0,-1000.0,-1000.0,-1000.0,-1000.0,-1000.0,-1000.0,-1000.0,-1000.0,-1000.0,-1000.0,-1000.0,-1000.0,-1000.0,-1000.0,-1000.0,-1000.0,-1000.0,-1000.0,-1000.0,-1000.0,-1000.0,-1000.0,-1000.0,-1000.0,-1000.0,-1000.0,-1000.0,-1000.0,-1000.0,-1000.0,-1000.0,-1000.0,-1000.0,-1000.0,-1000.0,-1000.0,-1000.0,-1000.0,-1000.0,-1000.0,-1000.0,-1000.0,-1000.0,-1000.0,-1000.0,-1000.0,-1000.0,-1000.0,-1000.0,-1000.0,-1000.0,-1000.0,-1000.0,-1000.0,-1000.0,1.0,3.0,yes,180.0,240.0,14310323.0,even,asymm,14309833.0,52.0,52.0,lower,-184.0,-6.0,180.0,-0.764102748085,0.0,-184.0,right,peeler,object,43.7,-168.3,-43.7,-168.3,-0.303472222222,-0.654166666667,-43.7,168.3,-0.301703465861,-1000.0,-1000.0,-1000.0,-1000.0,-1000.0,-1000.0,-1000.0,-1000.0,-1000.0,-1000.0,-1000.0,-1000.0,-1000.0,-1000.0,-1000.0,-1000.0,-1000.0,-1000.0,-1000.0,-1000.0,-1000.0,-1000.0,-1000.0,-1000.0,-1000.0,-1000.0,-1000.0,-1000.0,-1000.0,-1000.0,-1000.0,-1000.0,-1000.0,-1000.0,-1000.0,-1000.0,144.0,24.0,-0.254700916028,-0.0074912034126,-0.00176875636131,object_peeler.png,313.0,0.0,0.0,0.0,0.0
0.99490079016,1.0,control,0.0,garage,no,False,False,incompatible,('handle_left',,7.0,0.0,85.0,150.0,484.0,938.0,004A,undefined,SS06.asc,overlap,left,333.245967595,black,32.0,C,control,25.0,50.0,4000.0,50.0,50.0,0.0,mallet,False,0.0,3.0,asymm_garage_mallet,3.0,7.0,right,14327166.0,-1000.0,-1000.0,-1000.0,-1000.0,-1000.0,-1000.0,-1000.0,-1000.0,53.0,14326574.0,551.1,122.0,14326521.0,280.46579114,477.0,392.5,16.0,14326766.0,559.1,95.7,14326750.0,35.0408333234,546.0,128.2,17.0,14327036.0,589.1,119.9,14327019.0,32.8038107542,556.3,120.4,-1000.0,-1000.0,-1000.0,-1000.0,-1000.0,-1000.0,-1000.0,-1000.0,-1000.0,-1000.0,-1000.0,-1000.0,-1000.0,-1000.0,-1000.0,-1000.0,-1000.0,-1000.0,-1000.0,-1000.0,-1000.0,-1000.0,-1000.0,-1000.0,-1000.0,-1000.0,-1000.0,-1000.0,-1000.0,-1000.0,-1000.0,-1000.0,-1000.0,-1000.0,-1000.0,-1000.0,-1000.0,-1000.0,-1000.0,-1000.0,-1000.0,-1000.0,-1000.0,-1000.0,-1000.0,-1000.0,-1000.0,-1000.0,3.0,3.0,yes,180.0,240.0,14326225.0,even,asymm,14325735.0,55.0,55.0,upper,218.0,6.0,0.0,36.4525052012,0.0,218.0,left,mallet,object,39.1,-262.0,-39.1,-262.0,-0.241358024691,0.543209876543,39.1,-262.0,-0.316363179426,47.1,-288.3,-47.1,-288.3,-0.290740740741,0.867901234568,47.1,-288.3,-0.365745895476,77.1,-264.1,-77.1,-264.1,-0.475925925926,0.569135802469,77.1,-264.1,-0.550931080661,-1000.0,-1000.0,-1000.0,-1000.0,-1000.0,-1000.0,-1000.0,-1000.0,-1000.0,-1000.0,-1000.0,-1000.0,-1000.0,-1000.0,-1000.0,-1000.0,-1000.0,-1000.0,162.0,81.0,12.1508350671,0.357377501973,0.075005154735,object_mallet.png,296.0,525.0,794.0,0.0,0.0
1.98600311275,1.0,control,0.0,kitchen,no,False,False,compatible,('handle_left',,6.0,0.0,85.0,150.0,543.0,953.0,004A,undefined,SS06.asc,zero,left,405.611804533,black,32.0,C,control,25.0,50.0,4000.0,50.0,50.0,0.0,spoon2,False,0.0,4.0,asymm_kitchen_spoon2,4.0,6.0,left,14366175.0,-1000.0,-1000.0,-1000.0,-1000.0,-1000.0,-1000.0,-1000.0,-1000.0,49.0,14365456.0,536.9,147.2,14365407.0,253.254535991,478.8,393.7,23.0,14365666.0,584.4,113.2,14365643.0,50.8566613139,534.0,120.0,-1000.0,-1000.0,-1000.0,-1000.0,-1000.0,-1000.0,-1000.0,-1000.0,-1000.0,-1000.0,-1000.0,-1000.0,-1000.0,-1000.0,-1000.0,-1000.0,-1000.0,-1000.0,-1000.0,-1000.0,-1000.0,-1000.0,-1000.0,-1000.0,-1000.0,-1000.0,-1000.0,-1000.0,-1000.0,-1000.0,-1000.0,-1000.0,-1000.0,-1000.0,-1000.0,-1000.0,-1000.0,-1000.0,-1000.0,-1000.0,-1000.0,-1000.0,-1000.0,-1000.0,-1000.0,-1000.0,-1000.0,-1000.0,-1000.0,-1000.0,-1000.0,-1000.0,-1000.0,-1000.0,-1000.0,-1000.0,2.0,3.0,yes,180.0,240.0,14365219.0,even,asymm,14364669.0,62.0,62.0,upper,185.0,5.0,0.0,12.0262630064,0.0,185.0,left,spoon2,object,24.9,-236.8,-24.9,-236.8,-0.141477272727,1.17727272727,24.9,-236.8,-0.164254285997,72.4,-270.8,-72.4,-270.8,-0.411363636364,1.95,72.4,-270.8,-0.434140649633,-1000.0,-1000.0,-1000.0,-1000.0,-1000.0,-1000.0,-1000.0,-1000.0,-1000.0,-1000.0,-1000.0,-1000.0,-1000.0,-1000.0,-1000.0,-1000.0,-1000.0,-1000.0,-1000.0,-1000.0,-1000.0,-1000.0,-1000.0,-1000.0,-1000.0,-1000.0,-1000.0,176.0,44.0,4.00875433547,0.117904539278,0.0227770132697,object_spoon2.png,188.0,424.0,0.0,0.0,0.0
1007.81703295,1.0,control,0.0,garage,no,False,False,incompatible,('handle_left',,7.0,0.0,85.0,150.0,493.0,388.0,004A,undefined,SS06.asc,zero,left,347.689455837,black,32.0,C,control,25.0,50.0,4000.0,50.0,50.0,0.0,paintbrush,False,0.0,5.0,asymm_garage_paintbrush,5.0,7.0,right,14434505.0,-1000.0,-1000.0,-1000.0,-1000.0,-1000.0,-1000.0,-1000.0,-1000.0,35.0,14433354.0,516.4,592.8,14433319.0,206.406322578,481.3,389.4,18.0,14433713.0,533.5,598.1,14433695.0,23.1905153026,512.3,588.7,9.0,14434234.0,516.4,594.8,14434225.0,16.9543504741,532.1,601.2,-1000.0,-1000.0,-1000.0,-1000.0,-1000.0,-1000.0,-1000.0,-1000.0,-1000.0,-1000.0,-1000.0,-1000.0,-1000.0,-1000.0,-1000.0,-1000.0,-1000.0,-1000.0,-1000.0,-1000.0,-1000.0,-1000.0,-1000.0,-1000.0,-1000.0,-1000.0,-1000.0,-1000.0,-1000.0,-1000.0,-1000.0,-1000.0,-1000.0,-1000.0,-1000.0,-1000.0,-1000.0,-1000.0,-1000.0,-1000.0,-1000.0,-1000.0,-1000.0,-1000.0,-1000.0,-1000.0,-1000.0,-1000.0,3.0,3.0,yes,180.0,240.0,14433107.0,even,asymm,14432607.0,73.0,73.0,lower,-191.0,-6.0,180.0,33.2045987775,0.0,-191.0,left,paintbrush,object,-4.4,-208.8,-4.4,-208.8,-0.025,0.508571428571,4.4,208.8,-0.0878874976847,-21.5,-214.1,-21.5,-214.1,-0.122159090909,0.66,21.5,214.1,-0.185046588594,-4.4,-210.8,-4.4,-210.8,-0.025,0.565714285714,4.4,210.8,-0.0878874976847,-1000.0,-1000.0,-1000.0,-1000.0,-1000.0,-1000.0,-1000.0,-1000.0,-1000.0,-1000.0,-1000.0,-1000.0,-1000.0,-1000.0,-1000.0,-1000.0,-1000.0,-1000.0,176.0,35.0,11.0681995925,0.325535282132,0.0628874976847,object_paintbrush.png,212.0,588.0,1118.0,0.0,0.0
986.905758603,1.0,control,0.0,kitchen,no,False,False,compatible,('handle_left',,6.0,0.0,85.0,150.0,600.0,338.0,004A,undefined,SS06.asc,zero,left,451.158068505,black,32.0,C,control,25.0,50.0,4000.0,50.0,50.0,0.0,peeler,False,0.0,5.0,asymm_kitchen_peeler,5.0,6.0,left,14439904.0,-1000.0,-1000.0,-1000.0,-1000.0,-1000.0,-1000.0,-1000.0,-1000.0,44.0,14438782.0,512.7,173.9,14438738.0,233.690158115,469.7,403.6,17.0,14439031.0,534.3,173.4,14439014.0,40.9518009372,495.5,186.5,-1000.0,-1000.0,-1000.0,-1000.0,-1000.0,-1000.0,-1000.0,-1000.0,-1000.0,-1000.0,-1000.0,-1000.0,-1000.0,-1000.0,-1000.0,-1000.0,-1000.0,-1000.0,-1000.0,-1000.0,-1000.0,-1000.0,-1000.0,-1000.0,-1000.0,-1000.0,-1000.0,-1000.0,-1000.0,-1000.0,-1000.0,-1000.0,-1000.0,-1000.0,-1000.0,-1000.0,-1000.0,-1000.0,-1000.0,-1000.0,-1000.0,-1000.0,-1000.0,-1000.0,-1000.0,-1000.0,-1000.0,-1000.0,-1000.0,-1000.0,-1000.0,-1000.0,-1000.0,-1000.0,-1000.0,-1000.0,2.0,3.0,yes,180.0,240.0,14438577.0,even,asymm,14437967.0,74.0,74.0,upper,181.0,5.0,0.0,0.764102748085,0.0,181.0,left,peeler,object,0.7,-210.1,-0.7,-210.1,-0.00486111111111,1.2125,0.7,-210.1,-0.00662986747242,22.3,-210.6,-22.3,-210.6,-0.154861111111,1.23333333333,22.3,-210.6,-0.156629867472,-1000.0,-1000.0,-1000.0,-1000.0,-1000.0,-1000.0,-1000.0,-1000.0,-1000.0,-1000.0,-1000.0,-1000.0,-1000.0,-1000.0,-1000.0,-1000.0,-1000.0,-1000.0,-1000.0,-1000.0,-1000.0,-1000.0,-1000.0,-1000.0,-1000.0,-1000.0,-1000.0,144.0,24.0,0.254700916028,0.0074912034126,0.00176875636131,object_peeler.png,161.0,437.0,0.0,0.0,0.0
1559.86133638,1.0,control,0.0,garage,no,False,False,compatible,('handle_right',,7.0,0.0,85.0,150.0,801.0,529.0,004A,undefined,SS06.asc,overlap,right,327.788596532,black,32.0,B,control,25.0,50.0,4000.0,50.0,50.0,1.0,screwdriver,False,0.0,5.0,asymm_garage_screwdriver,5.0,7.0,right,14469822.0,-1000.0,-1000.0,-1000.0,-1000.0,-1000.0,-1000.0,-1000.0,-1000.0,48.0,14468111.0,547.9,168.3,14468063.0,229.078239909,480.7,387.3,12.0,14468782.0,517.7,163.0,14468770.0,27.0112939342,531.7,186.1,-1000.0,-1000.0,-1000.0,-1000.0,-1000.0,-1000.0,-1000.0,-1000.0,-1000.0,-1000.0,-1000.0,-1000.0,-1000.0,-1000.0,-1000.0,-1000.0,-1000.0,-1000.0,-1000.0,-1000.0,-1000.0,-1000.0,-1000.0,-1000.0,-1000.0,-1000.0,-1000.0,-1000.0,-1000.0,-1000.0,-1000.0,-1000.0,-1000.0,-1000.0,-1000.0,-1000.0,-1000.0,-1000.0,-1000.0,-1000.0,-1000.0,-1000.0,-1000.0,-1000.0,-1000.0,-1000.0,-1000.0,-1000.0,-1000.0,-1000.0,-1000.0,-1000.0,-1000.0,-1000.0,-1000.0,-1000.0,2.0,3.0,yes,180.0,240.0,14467731.0,even,asymm,14466921.0,80.0,80.0,upper,177.0,5.0,0.0,53.8138704136,0.0,177.0,right,screwdriver,object,35.9,-215.7,35.9,-215.7,0.211176470588,1.6125,35.9,-215.7,0.10565907762,5.7,-221.0,5.7,-221.0,0.0335294117647,1.83333333333,5.7,-221.0,-0.0719879812031,-1000.0,-1000.0,-1000.0,-1000.0,-1000.0,-1000.0,-1000.0,-1000.0,-1000.0,-1000.0,-1000.0,-1000.0,-1000.0,-1000.0,-1000.0,-1000.0,-1000.0,-1000.0,-1000.0,-1000.0,-1000.0,-1000.0,-1000.0,-1000.0,-1000.0,-1000.0,-1000.0,170.0,24.0,17.9379568045,0.527586964839,0.105517392968,object_screwdriver.png,332.0,1039.0,0.0,0.0,0.0
1162.30109247,1.0,control,0.0,garage,no,False,False,compatible,('handle_right',,7.0,0.0,85.0,150.0,634.0,365.0,004A,undefined,SS06.asc,zero,right,411.292984389,black,32.0,B,control,25.0,50.0,4000.0,50.0,50.0,0.0,chisel2,False,0.0,5.0,asymm_garage_chisel2,5.0,7.0,right,14503724.0,-1000.0,-1000.0,-1000.0,-1000.0,-1000.0,-1000.0,-1000.0,-1000.0,49.0,14502431.0,540.8,137.3,14502382.0,281.383243993,469.5,409.5,24.0,14502611.0,524.8,82.7,14502587.0,62.4891990667,534.7,144.4,20.0,14502906.0,507.3,49.6,14502886.0,23.3619348514,530.6,51.3,-1000.0,-1000.0,-1000.0,-1000.0,-1000.0,-1000.0,-1000.0,-1000.0,-1000.0,-1000.0,-1000.0,-1000.0,-1000.0,-1000.0,-1000.0,-1000.0,-1000.0,-1000.0,-1000.0,-1000.0,-1000.0,-1000.0,-1000.0,-1000.0,-1000.0,-1000.0,-1000.0,-1000.0,-1000.0,-1000.0,-1000.0,-1000.0,-1000.0,-1000.0,-1000.0,-1000.0,-1000.0,-1000.0,-1000.0,-1000.0,-1000.0,-1000.0,-1000.0,-1000.0,-1000.0,-1000.0,-1000.0,-1000.0,3.0,3.0,yes,180.0,240.0,14502194.0,even,asymm,14501554.0,86.0,86.0,upper,233.0,6.0,0.0,1.20575132064,0.0,233.0,right,chisel2,object,28.8,-246.7,28.8,-246.7,0.163636363636,0.391428571429,28.8,-246.7,0.161352743711,12.8,-301.3,12.8,-301.3,0.0727272727273,1.95142857143,12.8,-301.3,0.0704436528018,-4.7,-334.4,-4.7,-334.4,-0.0267045454545,2.89714285714,-4.7,-334.4,-0.02898816538,-1000.0,-1000.0,-1000.0,-1000.0,-1000.0,-1000.0,-1000.0,-1000.0,-1000.0,-1000.0,-1000.0,-1000.0,-1000.0,-1000.0,-1000.0,-1000.0,-1000.0,-1000.0,176.0,35.0,0.40191710688,0.0118210913788,0.00228361992545,object_chisel2.png,188.0,393.0,692.0,0.0,0.0
835.352588326,1.0,control,0.0,kitchen,no,False,False,incompatible,('handle_right',,6.0,0.0,85.0,150.0,475.0,368.0,004A,undefined,SS06.asc,overlap,right,325.816285068,black,32.0,B,control,25.0,50.0,4000.0,50.0,50.0,0.0,fork,False,0.0,5.0,asymm_kitchen_fork,5.0,6.0,left,14555635.0,-1000.0,-1000.0,-1000.0,-1000.0,-1000.0,-1000.0,-1000.0,-1000.0,49.0,14554659.0,512.5,234.2,14554610.0,168.815283668,482.9,400.4,23.0,14554839.0,509.6,183.2,14554816.0,46.1254810273,513.0,229.2,10.0,14555383.0,511.9,175.2,14555373.0,21.4671842588,504.1,195.2,-1000.0,-1000.0,-1000.0,-1000.0,-1000.0,-1000.0,-1000.0,-1000.0,-1000.0,-1000.0,-1000.0,-1000.0,-1000.0,-1000.0,-1000.0,-1000.0,-1000.0,-1000.0,-1000.0,-1000.0,-1000.0,-1000.0,-1000.0,-1000.0,-1000.0,-1000.0,-1000.0,-1000.0,-1000.0,-1000.0,-1000.0,-1000.0,-1000.0,-1000.0,-1000.0,-1000.0,-1000.0,-1000.0,-1000.0,-1000.0,-1000.0,-1000.0,-1000.0,-1000.0,-1000.0,-1000.0,-1000.0,-1000.0,3.0,3.0,yes,180.0,240.0,14554430.0,even,asymm,14553950.0,91.0,91.0,upper,178.0,5.0,0.0,-32.1684136693,0.0,178.0,right,fork,object,0.5,-149.8,0.5,-149.8,0.00267379679144,-0.762162162162,0.5,-149.8,0.060014997628,-2.4,-200.8,-2.4,-200.8,-0.0128342245989,0.616216216216,-2.4,-200.8,0.0445069762376,-0.1,-208.8,-0.1,-208.8,-0.000534759358289,0.832432432432,-0.1,-208.8,0.0568064414783,-1000.0,-1000.0,-1000.0,-1000.0,-1000.0,-1000.0,-1000.0,-1000.0,-1000.0,-1000.0,-1000.0,-1000.0,-1000.0,-1000.0,-1000.0,-1000.0,-1000.0,-1000.0,187.0,37.0,-10.7228045564,-0.315376604601,-0.0573412008365,object_fork.png,180.0,386.0,943.0,0.0,0.0
210.013332231,1.0,control,1.0,kitchen,no,False,False,compatible,('handle_left',,6.0,0.0,85.0,150.0,494.0,569.0,004A,undefined,SS06.asc,overlap,left,347.18657113,black,32.0,F,control,25.0,50.0,4000.0,50.0,50.0,0.0,spoon,False,0.0,7.0,asymm_kitchen_spoon,1.0,6.0,left,14736190.0,-1000.0,-1000.0,-1000.0,-1000.0,-1000.0,-1000.0,-1000.0,-1000.0,49.0,14735845.0,561.4,574.8,14735796.0,212.049522518,515.4,367.8,-1000.0,-1000.0,-1000.0,-1000.0,-1000.0,-1000.0,-1000.0,-1000.0,-1000.0,-1000.0,-1000.0,-1000.0,-1000.0,-1000.0,-1000.0,-1000.0,-1000.0,-1000.0,-1000.0,-1000.0,-1000.0,-1000.0,-1000.0,-1000.0,-1000.0,-1000.0,-1000.0,-1000.0,-1000.0,-1000.0,-1000.0,-1000.0,-1000.0,-1000.0,-1000.0,-1000.0,-1000.0,-1000.0,-1000.0,-1000.0,-1000.0,-1000.0,-1000.0,-1000.0,-1000.0,-1000.0,-1000.0,-1000.0,-1000.0,-1000.0,-1000.0,-1000.0,-1000.0,-1000.0,-1000.0,-1000.0,-1000.0,-1000.0,-1000.0,-1000.0,-1000.0,-1000.0,-1000.0,-1000.0,1.0,3.0,yes,180.0,240.0,14735410.0,even,asymm,14734910.0,106.0,106.0,lower,-218.0,-7.0,180.0,13.4578679943,0.0,-218.0,left,spoon,object,-49.4,-190.8,-49.4,-190.8,-0.26847826087,-0.906666666667,49.4,190.8,-0.292858456511,-1000.0,-1000.0,-1000.0,-1000.0,-1000.0,-1000.0,-1000.0,-1000.0,-1000.0,-1000.0,-1000.0,-1000.0,-1000.0,-1000.0,-1000.0,-1000.0,-1000.0,-1000.0,-1000.0,-1000.0,-1000.0,-1000.0,-1000.0,-1000.0,-1000.0,-1000.0,-1000.0,-1000.0,-1000.0,-1000.0,-1000.0,-1000.0,-1000.0,-1000.0,-1000.0,-1000.0,184.0,30.0,4.4859559981,0.131939882297,0.0243801956418,object_spoon.png,386.0,0.0,0.0,0.0,0.0
368.686208374,1.0,control,1.0,kitchen,no,False,False,compatible,('handle_left',,6.0,0.0,85.0,150.0,553.0,372.0,004A,undefined,SS06.asc,zero,left,443.497972839,black,32.0,F,control,25.0,50.0,4000.0,50.0,50.0,0.0,washingbrush,False,0.0,6.0,asymm_kitchen_washingbrush,1.0,6.0,left,14740002.0,-1000.0,-1000.0,-1000.0,-1000.0,-1000.0,-1000.0,-1000.0,-1000.0,37.0,14739488.0,577.9,200.4,14739451.0,188.230337619,516.4,378.3,-1000.0,-1000.0,-1000.0,-1000.0,-1000.0,-1000.0,-1000.0,-1000.0,-1000.0,-1000.0,-1000.0,-1000.0,-1000.0,-1000.0,-1000.0,-1000.0,-1000.0,-1000.0,-1000.0,-1000.0,-1000.0,-1000.0,-1000.0,-1000.0,-1000.0,-1000.0,-1000.0,-1000.0,-1000.0,-1000.0,-1000.0,-1000.0,-1000.0,-1000.0,-1000.0,-1000.0,-1000.0,-1000.0,-1000.0,-1000.0,-1000.0,-1000.0,-1000.0,-1000.0,-1000.0,-1000.0,-1000.0,-1000.0,-1000.0,-1000.0,-1000.0,-1000.0,-1000.0,-1000.0,-1000.0,-1000.0,-1000.0,-1000.0,-1000.0,-1000.0,-1000.0,-1000.0,-1000.0,-1000.0,1.0,3.0,yes,180.0,240.0,14739260.0,even,asymm,14738701.0,107.0,107.0,upper,170.0,5.0,0.0,30.890600737,0.0,170.0,left,washingbrush,object,65.9,-183.6,-65.9,-183.6,-0.374431818182,0.309090909091,65.9,-183.6,-0.43293674382,-1000.0,-1000.0,-1000.0,-1000.0,-1000.0,-1000.0,-1000.0,-1000.0,-1000.0,-1000.0,-1000.0,-1000.0,-1000.0,-1000.0,-1000.0,-1000.0,-1000.0,-1000.0,-1000.0,-1000.0,-1000.0,-1000.0,-1000.0,-1000.0,-1000.0,-1000.0,-1000.0,-1000.0,-1000.0,-1000.0,-1000.0,-1000.0,-1000.0,-1000.0,-1000.0,-1000.0,176.0,44.0,10.2968669123,0.302849026833,0.0585049256383,object_washingbrush.png,191.0,0.0,0.0,0.0,0.0
316.158720611,1.0,control,1.0,kitchen,no,False,False,incompatible,('handle_right',,6.0,0.0,85.0,150.0,760.0,471.0,004A,undefined,SS06.asc,overlap,right,418.465885411,black,32.0,E,control,25.0,50.0,4000.0,50.0,50.0,0.0,spoon2,False,0.0,6.0,asymm_kitchen_spoon2,1.0,6.0,left,14750201.0,-1000.0,-1000.0,-1000.0,-1000.0,-1000.0,-1000.0,-1000.0,-1000.0,38.0,14749743.0,537.1,200.9,14749705.0,169.742451968,509.6,368.4,-1000.0,-1000.0,-1000.0,-1000.0,-1000.0,-1000.0,-1000.0,-1000.0,-1000.0,-1000.0,-1000.0,-1000.0,-1000.0,-1000.0,-1000.0,-1000.0,-1000.0,-1000.0,-1000.0,-1000.0,-1000.0,-1000.0,-1000.0,-1000.0,-1000.0,-1000.0,-1000.0,-1000.0,-1000.0,-1000.0,-1000.0,-1000.0,-1000.0,-1000.0,-1000.0,-1000.0,-1000.0,-1000.0,-1000.0,-1000.0,-1000.0,-1000.0,-1000.0,-1000.0,-1000.0,-1000.0,-1000.0,-1000.0,-1000.0,-1000.0,-1000.0,-1000.0,-1000.0,-1000.0,-1000.0,-1000.0,-1000.0,-1000.0,-1000.0,-1000.0,-1000.0,-1000.0,-1000.0,-1000.0,1.0,3.0,yes,180.0,240.0,14749412.0,even,asymm,14748642.0,109.0,109.0,upper,177.0,5.0,0.0,-12.0262630064,0.0,177.0,right,spoon2,object,25.1,-183.1,25.1,-183.1,0.142613636364,0.138636363636,25.1,-183.1,0.165390649633,-1000.0,-1000.0,-1000.0,-1000.0,-1000.0,-1000.0,-1000.0,-1000.0,-1000.0,-1000.0,-1000.0,-1000.0,-1000.0,-1000.0,-1000.0,-1000.0,-1000.0,-1000.0,-1000.0,-1000.0,-1000.0,-1000.0,-1000.0,-1000.0,-1000.0,-1000.0,-1000.0,-1000.0,-1000.0,-1000.0,-1000.0,-1000.0,-1000.0,-1000.0,-1000.0,-1000.0,176.0,44.0,-4.00875433547,-0.117904539278,-0.0227770132697,object_spoon2.png,293.0,0.0,0.0,0.0,0.0
388.950028947,1.0,control,1.0,kitchen,no,False,False,incompatible,('handle_right',,6.0,0.0,85.0,150.0,541.0,435.0,004A,undefined,SS06.asc,zero,right,420.852069288,black,32.0,E,control,25.0,50.0,4000.0,50.0,50.0,0.0,knife,False,0.0,7.0,asymm_kitchen_knife,2.0,6.0,left,14794622.0,-1000.0,-1000.0,-1000.0,-1000.0,-1000.0,-1000.0,-1000.0,-1000.0,39.0,14794078.0,531.6,610.3,14794039.0,240.951966168,515.3,369.9,21.0,14794373.0,580.1,611.1,14794352.0,42.2029619814,537.9,610.6,-1000.0,-1000.0,-1000.0,-1000.0,-1000.0,-1000.0,-1000.0,-1000.0,-1000.0,-1000.0,-1000.0,-1000.0,-1000.0,-1000.0,-1000.0,-1000.0,-1000.0,-1000.0,-1000.0,-1000.0,-1000.0,-1000.0,-1000.0,-1000.0,-1000.0,-1000.0,-1000.0,-1000.0,-1000.0,-1000.0,-1000.0,-1000.0,-1000.0,-1000.0,-1000.0,-1000.0,-1000.0,-1000.0,-1000.0,-1000.0,-1000.0,-1000.0,-1000.0,-1000.0,-1000.0,-1000.0,-1000.0,-1000.0,-1000.0,-1000.0,-1000.0,-1000.0,-1000.0,-1000.0,-1000.0,-1000.0,2.0,3.0,yes,180.0,240.0,14793796.0,even,asymm,14793246.0,116.0,116.0,lower,-226.0,-7.0,180.0,1.81524104517,0.0,-226.0,right,knife,object,-19.6,-226.3,19.6,-226.3,0.111363636364,0.0136363636364,19.6,226.3,0.107925679839,-68.1,-227.1,68.1,-227.1,0.386931818182,0.05,68.1,227.1,0.383493861657,-1000.0,-1000.0,-1000.0,-1000.0,-1000.0,-1000.0,-1000.0,-1000.0,-1000.0,-1000.0,-1000.0,-1000.0,-1000.0,-1000.0,-1000.0,-1000.0,-1000.0,-1000.0,-1000.0,-1000.0,-1000.0,-1000.0,-1000.0,-1000.0,-1000.0,-1000.0,-1000.0,176.0,22.0,0.60508034839,0.017796480835,0.00343795652494,object_knife.png,243.0,556.0,0.0,0.0,0.0
355.078250539,1.0,control,1.0,kitchen,no,False,False,compatible,('handle_left',,6.0,0.0,85.0,150.0,540.0,454.0,004A,undefined,SS06.asc,overlap,left,391.204880863,black,32.0,F,control,25.0,50.0,4000.0,50.0,50.0,0.0,fork,False,0.0,7.0,asymm_kitchen_fork,2.0,6.0,left,14810539.0,-1000.0,-1000.0,-1000.0,-1000.0,-1000.0,-1000.0,-1000.0,-1000.0,47.0,14810049.0,570.7,205.9,14810002.0,177.472617606,507.4,371.7,74.0,14810508.0,601.1,157.5,14810434.0,63.3790186103,585.0,218.8,-1000.0,-1000.0,-1000.0,-1000.0,-1000.0,-1000.0,-1000.0,-1000.0,-1000.0,-1000.0,-1000.0,-1000.0,-1000.0,-1000.0,-1000.0,-1000.0,-1000.0,-1000.0,-1000.0,-1000.0,-1000.0,-1000.0,-1000.0,-1000.0,-1000.0,-1000.0,-1000.0,-1000.0,-1000.0,-1000.0,-1000.0,-1000.0,-1000.0,-1000.0,-1000.0,-1000.0,-1000.0,-1000.0,-1000.0,-1000.0,-1000.0,-1000.0,-1000.0,-1000.0,-1000.0,-1000.0,-1000.0,-1000.0,-1000.0,-1000.0,-1000.0,-1000.0,-1000.0,-1000.0,-1000.0,-1000.0,2.0,3.0,yes,180.0,240.0,14809728.0,even,asymm,14809178.0,120.0,120.0,upper,170.0,5.0,0.0,32.1684136693,0.0,170.0,left,fork,object,58.7,-178.1,-58.7,-178.1,-0.313903743316,0.218918918919,58.7,-178.1,-0.371244944152,89.1,-226.5,-89.1,-226.5,-0.476470588235,1.52702702703,89.1,-226.5,-0.533811789072,-1000.0,-1000.0,-1000.0,-1000.0,-1000.0,-1000.0,-1000.0,-1000.0,-1000.0,-1000.0,-1000.0,-1000.0,-1000.0,-1000.0,-1000.0,-1000.0,-1000.0,-1000.0,-1000.0,-1000.0,-1000.0,-1000.0,-1000.0,-1000.0,-1000.0,-1000.0,-1000.0,187.0,37.0,10.7228045564,0.315376604601,0.0573412008365,object_fork.png,274.0,706.0,0.0,0.0,0.0
335.970421275,1.0,control,1.0,garage,no,False,False,compatible,('handle_right',,7.0,0.0,85.0,150.0,513.0,412.0,004A,undefined,SS06.asc,zero,right,371.222326518,black,32.0,E,control,25.0,50.0,4000.0,50.0,50.0,1.0,chisel2,False,0.0,7.0,asymm_garage_chisel2,2.0,7.0,right,14832491.0,-1000.0,-1000.0,-1000.0,-1000.0,-1000.0,-1000.0,-1000.0,-1000.0,46.0,14832016.0,504.7,574.8,14831970.0,188.28959079,520.8,387.2,166.0,14832340.0,502.1,584.0,14832174.0,21.8103186588,493.4,604.0,-1000.0,-1000.0,-1000.0,-1000.0,-1000.0,-1000.0,-1000.0,-1000.0,-1000.0,-1000.0,-1000.0,-1000.0,-1000.0,-1000.0,-1000.0,-1000.0,-1000.0,-1000.0,-1000.0,-1000.0,-1000.0,-1000.0,-1000.0,-1000.0,-1000.0,-1000.0,-1000.0,-1000.0,-1000.0,-1000.0,-1000.0,-1000.0,-1000.0,-1000.0,-1000.0,-1000.0,-1000.0,-1000.0,-1000.0,-1000.0,-1000.0,-1000.0,-1000.0,-1000.0,-1000.0,-1000.0,-1000.0,-1000.0,-1000.0,-1000.0,-1000.0,-1000.0,-1000.0,-1000.0,-1000.0,-1000.0,2.0,3.0,yes,180.0,240.0,14831741.0,even,asymm,14831221.0,125.0,125.0,lower,-238.0,-7.0,180.0,1.20575132064,0.0,-238.0,right,chisel2,object,7.3,-190.8,-7.3,-190.8,-0.0414772727273,-1.34857142857,-7.3,190.8,-0.0437608926527,9.9,-200.0,-9.9,-200.0,-0.05625,-1.08571428571,-9.9,200.0,-0.0585336199255,-1000.0,-1000.0,-1000.0,-1000.0,-1000.0,-1000.0,-1000.0,-1000.0,-1000.0,-1000.0,-1000.0,-1000.0,-1000.0,-1000.0,-1000.0,-1000.0,-1000.0,-1000.0,-1000.0,-1000.0,-1000.0,-1000.0,-1000.0,-1000.0,-1000.0,-1000.0,-1000.0,176.0,35.0,0.40191710688,0.0118210913788,0.00228361992545,object_chisel2.png,229.0,433.0,0.0,0.0,0.0
2284.18974895,1.0,control,1.0,kitchen,no,False,False,compatible,('handle_left',,6.0,0.0,85.0,150.0,571.0,966.0,004A,undefined,SS06.asc,zero,left,355.005747789,black,32.0,F,control,25.0,50.0,4000.0,50.0,50.0,1.0,spoon2,False,0.0,7.0,asymm_kitchen_spoon2,2.0,6.0,left,14840543.0,-1000.0,-1000.0,-1000.0,-1000.0,-1000.0,-1000.0,-1000.0,-1000.0,49.0,14837532.0,569.7,138.4,14837483.0,236.754936591,522.0,370.3,18.0,14838601.0,594.3,132.4,14838583.0,40.6527981817,569.1,164.3,15.0,14838977.0,556.2,123.2,14838962.0,33.9520249764,586.9,137.7,159.0,14839195.0,592.7,140.2,14839036.0,36.3902459459,557.2,132.2,20.0,14839393.0,559.8,98.7,14839373.0,26.3837070936,582.1,112.8,10.0,14839616.0,519.1,103.6,14839606.0,22.361797781,539.2,113.4,21.0,14840014.0,585.7,109.5,14839993.0,57.7002599648,528.1,112.9,21.0,14840221.0,531.2,110.4,14840200.0,48.3696185637,579.3,115.5,-1000.0,-1000.0,-1000.0,-1000.0,-1000.0,-1000.0,-1000.0,-1000.0,8.0,3.0,yes,180.0,240.0,14837291.0,even,asymm,14836711.0,126.0,126.0,upper,194.0,5.0,0.0,12.0262630064,0.0,194.0,left,spoon2,object,57.7,-245.6,-57.7,-245.6,-0.327840909091,1.17272727273,57.7,-245.6,-0.350617922361,82.3,-251.6,-82.3,-251.6,-0.467613636364,1.30909090909,82.3,-251.6,-0.490390649633,44.2,-260.8,-44.2,-260.8,-0.251136363636,1.51818181818,44.2,-260.8,-0.273913376906,80.7,-243.8,-80.7,-243.8,-0.458522727273,1.13181818182,80.7,-243.8,-0.481299740542,47.8,-285.3,-47.8,-285.3,-0.271590909091,2.075,47.8,-285.3,-0.294367922361,176.0,44.0,4.00875433547,0.117904539278,0.0227770132697,object_spoon2.png,192.0,1292.0,1671.0,1745.0,2082.0
574.789777521,1.0,control,1.0,garage,no,False,False,compatible,('handle_right',,7.0,0.0,85.0,150.0,626.0,570.0,004A,undefined,SS06.asc,zero,right,299.163391577,black,32.0,E,control,25.0,50.0,4000.0,50.0,50.0,0.0,paintbrush,False,0.0,9.0,asymm_garage_paintbrush,3.0,7.0,right,14869342.0,-1000.0,-1000.0,-1000.0,-1000.0,-1000.0,-1000.0,-1000.0,-1000.0,46.0,14868558.0,479.2,526.2,14868512.0,172.612166431,516.2,357.6,18.0,14869170.0,524.4,539.1,14869152.0,48.3826415153,476.2,543.3,-1000.0,-1000.0,-1000.0,-1000.0,-1000.0,-1000.0,-1000.0,-1000.0,-1000.0,-1000.0,-1000.0,-1000.0,-1000.0,-1000.0,-1000.0,-1000.0,-1000.0,-1000.0,-1000.0,-1000.0,-1000.0,-1000.0,-1000.0,-1000.0,-1000.0,-1000.0,-1000.0,-1000.0,-1000.0,-1000.0,-1000.0,-1000.0,-1000.0,-1000.0,-1000.0,-1000.0,-1000.0,-1000.0,-1000.0,-1000.0,-1000.0,-1000.0,-1000.0,-1000.0,-1000.0,-1000.0,-1000.0,-1000.0,-1000.0,-1000.0,-1000.0,-1000.0,-1000.0,-1000.0,-1000.0,-1000.0,2.0,3.0,yes,180.0,240.0,14868195.0,even,asymm,14867564.0,131.0,131.0,lower,-197.0,-6.0,180.0,-33.2045987775,0.0,-197.0,right,paintbrush,object,32.8,-142.2,-32.8,-142.2,-0.186363636364,-1.56571428571,-32.8,142.2,-0.123476138679,-12.4,-155.1,12.4,-155.1,0.0704545454545,-1.19714285714,12.4,155.1,0.133342043139,-1000.0,-1000.0,-1000.0,-1000.0,-1000.0,-1000.0,-1000.0,-1000.0,-1000.0,-1000.0,-1000.0,-1000.0,-1000.0,-1000.0,-1000.0,-1000.0,-1000.0,-1000.0,-1000.0,-1000.0,-1000.0,-1000.0,-1000.0,-1000.0,-1000.0,-1000.0,-1000.0,176.0,35.0,-11.0681995925,-0.325535282132,-0.0628874976847,object_paintbrush.png,317.0,957.0,0.0,0.0,0.0
678.665170939,1.0,control,1.0,kitchen,no,False,False,compatible,('handle_left',,6.0,0.0,85.0,150.0,551.0,401.0,004A,undefined,SS06.asc,zero,left,435.613601812,black,32.0,F,control,25.0,50.0,4000.0,50.0,50.0,0.0,knife,False,0.0,8.0,asymm_kitchen_knife,3.0,6.0,left,14877957.0,-1000.0,-1000.0,-1000.0,-1000.0,-1000.0,-1000.0,-1000.0,-1000.0,40.0,14877132.0,531.3,171.2,14877092.0,198.295360511,522.5,369.3,21.0,14877312.0,570.6,137.1,14877291.0,63.1535430518,525.2,181.0,-1000.0,-1000.0,-1000.0,-1000.0,-1000.0,-1000.0,-1000.0,-1000.0,-1000.0,-1000.0,-1000.0,-1000.0,-1000.0,-1000.0,-1000.0,-1000.0,-1000.0,-1000.0,-1000.0,-1000.0,-1000.0,-1000.0,-1000.0,-1000.0,-1000.0,-1000.0,-1000.0,-1000.0,-1000.0,-1000.0,-1000.0,-1000.0,-1000.0,-1000.0,-1000.0,-1000.0,-1000.0,-1000.0,-1000.0,-1000.0,-1000.0,-1000.0,-1000.0,-1000.0,-1000.0,-1000.0,-1000.0,-1000.0,-1000.0,-1000.0,-1000.0,-1000.0,-1000.0,-1000.0,-1000.0,-1000.0,2.0,3.0,yes,180.0,240.0,14876876.0,even,asymm,14876316.0,133.0,133.0,upper,216.0,6.0,0.0,-1.81524104517,0.0,216.0,left,knife,object,19.3,-212.8,-19.3,-212.8,-0.109659090909,-0.145454545455,19.3,-212.8,-0.106221134384,58.6,-246.9,-58.6,-246.9,-0.332954545455,1.40454545455,58.6,-246.9,-0.32951658893,-1000.0,-1000.0,-1000.0,-1000.0,-1000.0,-1000.0,-1000.0,-1000.0,-1000.0,-1000.0,-1000.0,-1000.0,-1000.0,-1000.0,-1000.0,-1000.0,-1000.0,-1000.0,-1000.0,-1000.0,-1000.0,-1000.0,-1000.0,-1000.0,-1000.0,-1000.0,-1000.0,176.0,22.0,-0.60508034839,-0.017796480835,-0.00343795652494,object_knife.png,216.0,415.0,0.0,0.0,0.0
487.800404508,1.0,control,1.0,garage,no,False,False,incompatible,('handle_left',,7.0,0.0,85.0,150.0,538.0,373.0,004A,undefined,SS06.asc,zero,left,418.651281293,black,32.0,F,control,25.0,50.0,4000.0,50.0,50.0,0.0,chisel2,False,0.0,8.0,asymm_garage_chisel2,3.0,7.0,right,14941816.0,-1000.0,-1000.0,-1000.0,-1000.0,-1000.0,-1000.0,-1000.0,-1000.0,49.0,14941194.0,536.9,582.5,14941145.0,205.817613435,506.1,379.0,-1000.0,-1000.0,-1000.0,-1000.0,-1000.0,-1000.0,-1000.0,-1000.0,-1000.0,-1000.0,-1000.0,-1000.0,-1000.0,-1000.0,-1000.0,-1000.0,-1000.0,-1000.0,-1000.0,-1000.0,-1000.0,-1000.0,-1000.0,-1000.0,-1000.0,-1000.0,-1000.0,-1000.0,-1000.0,-1000.0,-1000.0,-1000.0,-1000.0,-1000.0,-1000.0,-1000.0,-1000.0,-1000.0,-1000.0,-1000.0,-1000.0,-1000.0,-1000.0,-1000.0,-1000.0,-1000.0,-1000.0,-1000.0,-1000.0,-1000.0,-1000.0,-1000.0,-1000.0,-1000.0,-1000.0,-1000.0,-1000.0,-1000.0,-1000.0,-1000.0,-1000.0,-1000.0,-1000.0,-1000.0,1.0,3.0,yes,180.0,240.0,14940953.0,even,asymm,14940413.0,145.0,145.0,lower,-222.0,-7.0,180.0,-1.20575132064,0.0,-222.0,left,chisel2,object,-24.9,-198.5,-24.9,-198.5,-0.141477272727,-0.671428571429,24.9,198.5,-0.139193652802,-1000.0,-1000.0,-1000.0,-1000.0,-1000.0,-1000.0,-1000.0,-1000.0,-1000.0,-1000.0,-1000.0,-1000.0,-1000.0,-1000.0,-1000.0,-1000.0,-1000.0,-1000.0,-1000.0,-1000.0,-1000.0,-1000.0,-1000.0,-1000.0,-1000.0,-1000.0,-1000.0,-1000.0,-1000.0,-1000.0,-1000.0,-1000.0,-1000.0,-1000.0,-1000.0,-1000.0,176.0,35.0,-0.40191710688,-0.0118210913788,-0.00228361992545,object_chisel2.png,192.0,0.0,0.0,0.0,0.0
462.523021631,1.0,control,1.0,garage,no,False,False,incompatible,('handle_left',,7.0,0.0,85.0,150.0,531.0,485.0,004A,undefined,SS06.asc,overlap,left,391.595553314,black,32.0,F,control,25.0,50.0,4000.0,50.0,50.0,0.0,paintbrush,False,0.0,10.0,asymm_garage_paintbrush,4.0,7.0,right,14985287.0,-1000.0,-1000.0,-1000.0,-1000.0,-1000.0,-1000.0,-1000.0,-1000.0,32.0,14984676.0,527.7,560.2,14984644.0,179.09913456,510.8,381.9,22.0,14984900.0,557.9,554.1,14984878.0,29.3245630828,528.6,552.9,-1000.0,-1000.0,-1000.0,-1000.0,-1000.0,-1000.0,-1000.0,-1000.0,-1000.0,-1000.0,-1000.0,-1000.0,-1000.0,-1000.0,-1000.0,-1000.0,-1000.0,-1000.0,-1000.0,-1000.0,-1000.0,-1000.0,-1000.0,-1000.0,-1000.0,-1000.0,-1000.0,-1000.0,-1000.0,-1000.0,-1000.0,-1000.0,-1000.0,-1000.0,-1000.0,-1000.0,-1000.0,-1000.0,-1000.0,-1000.0,-1000.0,-1000.0,-1000.0,-1000.0,-1000.0,-1000.0,-1000.0,-1000.0,-1000.0,-1000.0,-1000.0,-1000.0,-1000.0,-1000.0,-1000.0,-1000.0,2.0,3.0,yes,180.0,240.0,14984337.0,even,asymm,14983797.0,153.0,153.0,lower,-190.0,-6.0,180.0,33.2045987775,0.0,-190.0,left,paintbrush,object,-15.7,-176.2,-15.7,-176.2,-0.0892045454545,-0.394285714286,15.7,176.2,-0.152092043139,-45.9,-170.1,-45.9,-170.1,-0.260795454545,-0.568571428571,45.9,170.1,-0.32368295223,-1000.0,-1000.0,-1000.0,-1000.0,-1000.0,-1000.0,-1000.0,-1000.0,-1000.0,-1000.0,-1000.0,-1000.0,-1000.0,-1000.0,-1000.0,-1000.0,-1000.0,-1000.0,-1000.0,-1000.0,-1000.0,-1000.0,-1000.0,-1000.0,-1000.0,-1000.0,-1000.0,176.0,35.0,11.0681995925,0.325535282132,0.0628874976847,object_paintbrush.png,307.0,541.0,0.0,0.0,0.0
384.725585522,1.0,control,1.0,kitchen,no,False,False,incompatible,('handle_right',,6.0,0.0,85.0,150.0,557.0,487.0,004A,undefined,SS06.asc,overlap,right,446.908802913,black,32.0,E,control,25.0,50.0,4000.0,50.0,50.0,1.0,sharpeningsteel,False,0.0,9.0,asymm_kitchen_sharpeningsteel,4.0,6.0,left,14989781.0,-1000.0,-1000.0,-1000.0,-1000.0,-1000.0,-1000.0,-1000.0,-1000.0,50.0,14989260.0,531.3,577.1,14989210.0,196.359109796,501.6,383.0,7.0,14989495.0,533.9,620.3,14989488.0,14.242541908,523.2,610.9,-1000.0,-1000.0,-1000.0,-1000.0,-1000.0,-1000.0,-1000.0,-1000.0,-1000.0,-1000.0,-1000.0,-1000.0,-1000.0,-1000.0,-1000.0,-1000.0,-1000.0,-1000.0,-1000.0,-1000.0,-1000.0,-1000.0,-1000.0,-1000.0,-1000.0,-1000.0,-1000.0,-1000.0,-1000.0,-1000.0,-1000.0,-1000.0,-1000.0,-1000.0,-1000.0,-1000.0,-1000.0,-1000.0,-1000.0,-1000.0,-1000.0,-1000.0,-1000.0,-1000.0,-1000.0,-1000.0,-1000.0,-1000.0,-1000.0,-1000.0,-1000.0,-1000.0,-1000.0,-1000.0,-1000.0,-1000.0,2.0,3.0,yes,180.0,240.0,14988908.0,even,asymm,14988348.0,154.0,154.0,lower,-228.0,-7.0,180.0,21.7534568235,0.0,-228.0,right,sharpeningsteel,object,-19.3,-193.1,19.3,-193.1,0.106629834254,-1.396,19.3,193.1,0.0665682194779,-21.9,-236.3,21.9,-236.3,0.120994475138,0.332,21.9,236.3,0.0809328603619,-1000.0,-1000.0,-1000.0,-1000.0,-1000.0,-1000.0,-1000.0,-1000.0,-1000.0,-1000.0,-1000.0,-1000.0,-1000.0,-1000.0,-1000.0,-1000.0,-1000.0,-1000.0,-1000.0,-1000.0,-1000.0,-1000.0,-1000.0,-1000.0,-1000.0,-1000.0,-1000.0,181.0,25.0,7.2511522745,0.213269184544,0.0400616147762,object_sharpeningsteel.png,302.0,580.0,0.0,0.0,0.0
987.95059586,1.0,control,1.0,garage,no,False,False,compatible,('handle_right',,7.0,0.0,85.0,150.0,584.0,353.0,004A,undefined,SS06.asc,overlap,right,503.005430194,black,32.0,E,control,25.0,50.0,4000.0,50.0,50.0,0.0,screwdriver,False,0.0,9.0,asymm_garage_screwdriver,4.0,7.0,right,14999582.0,-1000.0,-1000.0,-1000.0,-1000.0,-1000.0,-1000.0,-1000.0,-1000.0,45.0,14998455.0,542.2,127.4,14998410.0,259.371278287,511.1,384.9,8.0,14998741.0,542.1,118.9,14998733.0,17.6504957437,539.8,136.4,18.0,14998983.0,520.9,127.3,14998965.0,22.9078589135,543.8,126.7,-1000.0,-1000.0,-1000.0,-1000.0,-1000.0,-1000.0,-1000.0,-1000.0,-1000.0,-1000.0,-1000.0,-1000.0,-1000.0,-1000.0,-1000.0,-1000.0,-1000.0,-1000.0,-1000.0,-1000.0,-1000.0,-1000.0,-1000.0,-1000.0,-1000.0,-1000.0,-1000.0,-1000.0,-1000.0,-1000.0,-1000.0,-1000.0,-1000.0,-1000.0,-1000.0,-1000.0,-1000.0,-1000.0,-1000.0,-1000.0,-1000.0,-1000.0,-1000.0,-1000.0,-1000.0,-1000.0,-1000.0,-1000.0,3.0,3.0,yes,180.0,240.0,14998239.0,even,asymm,14997649.0,156.0,156.0,upper,226.0,6.0,0.0,53.8138704136,0.0,226.0,right,screwdriver,object,30.2,-256.6,30.2,-256.6,0.177647058824,1.275,30.2,-256.6,0.0721296658557,30.1,-265.1,30.1,-265.1,0.177058823529,1.62916666667,30.1,-265.1,0.0715414305616,8.9,-256.7,8.9,-256.7,0.0523529411765,1.27916666667,8.9,-256.7,-0.0531644517914,-1000.0,-1000.0,-1000.0,-1000.0,-1000.0,-1000.0,-1000.0,-1000.0,-1000.0,-1000.0,-1000.0,-1000.0,-1000.0,-1000.0,-1000.0,-1000.0,-1000.0,-1000.0,170.0,24.0,17.9379568045,0.527586964839,0.105517392968,object_screwdriver.png,171.0,494.0,726.0,0.0,0.0
517.197010549,1.0,control,1.0,garage,no,False,False,compatible,('handle_right',,7.0,0.0,85.0,150.0,518.0,426.0,004A,undefined,SS06.asc,overlap,right,369.246580293,black,32.0,E,control,25.0,50.0,4000.0,50.0,50.0,0.0,chisel,False,0.0,10.0,asymm_garage_chisel,5.0,7.0,right,15008285.0,-1000.0,-1000.0,-1000.0,-1000.0,-1000.0,-1000.0,-1000.0,-1000.0,33.0,15007622.0,532.3,587.9,15007589.0,207.97889316,513.2,380.8,11.0,15007807.0,504.3,578.6,15007796.0,23.8951878001,527.6,583.9,13.0,15008059.0,505.0,576.7,15008046.0,15.6869372409,499.8,591.5,-1000.0,-1000.0,-1000.0,-1000.0,-1000.0,-1000.0,-1000.0,-1000.0,-1000.0,-1000.0,-1000.0,-1000.0,-1000.0,-1000.0,-1000.0,-1000.0,-1000.0,-1000.0,-1000.0,-1000.0,-1000.0,-1000.0,-1000.0,-1000.0,-1000.0,-1000.0,-1000.0,-1000.0,-1000.0,-1000.0,-1000.0,-1000.0,-1000.0,-1000.0,-1000.0,-1000.0,-1000.0,-1000.0,-1000.0,-1000.0,-1000.0,-1000.0,-1000.0,-1000.0,-1000.0,-1000.0,-1000.0,-1000.0,3.0,3.0,yes,180.0,240.0,15007340.0,even,asymm,15006820.0,158.0,158.0,lower,-195.0,-6.0,180.0,24.5764355818,0.0,-195.0,right,chisel,object,-20.3,-203.9,20.3,-203.9,0.115340909091,0.306896551724,20.3,203.9,0.0687946295799,7.7,-194.6,-7.7,-194.6,-0.04375,-0.0137931034483,-7.7,194.6,-0.090296279511,7.0,-192.7,-7.0,-192.7,-0.0397727272727,-0.0793103448276,-7.0,192.7,-0.0863190067837,-1000.0,-1000.0,-1000.0,-1000.0,-1000.0,-1000.0,-1000.0,-1000.0,-1000.0,-1000.0,-1000.0,-1000.0,-1000.0,-1000.0,-1000.0,-1000.0,-1000.0,-1000.0,176.0,29.0,8.19214519393,0.24094544688,0.046546279511,object_chisel.png,249.0,456.0,706.0,0.0,0.0
574.498444373,1.0,control,1.0,garage,no,False,False,compatible,('handle_right',,7.0,0.0,85.0,150.0,559.0,448.0,004A,undefined,SS06.asc,zero,right,449.338969122,black,32.0,E,control,25.0,50.0,4000.0,50.0,50.0,1.0,hammer,False,0.0,10.0,asymm_garage_hammer,4.0,7.0,right,15019435.0,-1000.0,-1000.0,-1000.0,-1000.0,-1000.0,-1000.0,-1000.0,-1000.0,47.0,15018722.0,493.9,601.8,15018675.0,216.10453489,503.3,385.9,290.0,15019352.0,504.1,551.8,15019062.0,97.7765820634,479.0,646.3,-1000.0,-1000.0,-1000.0,-1000.0,-1000.0,-1000.0,-1000.0,-1000.0,-1000.0,-1000.0,-1000.0,-1000.0,-1000.0,-1000.0,-1000.0,-1000.0,-1000.0,-1000.0,-1000.0,-1000.0,-1000.0,-1000.0,-1000.0,-1000.0,-1000.0,-1000.0,-1000.0,-1000.0,-1000.0,-1000.0,-1000.0,-1000.0,-1000.0,-1000.0,-1000.0,-1000.0,-1000.0,-1000.0,-1000.0,-1000.0,-1000.0,-1000.0,-1000.0,-1000.0,-1000.0,-1000.0,-1000.0,-1000.0,-1000.0,-1000.0,-1000.0,-1000.0,-1000.0,-1000.0,-1000.0,-1000.0,2.0,3.0,yes,180.0,240.0,15018411.0,even,asymm,15017841.0,160.0,160.0,lower,-238.0,-7.0,180.0,-49.2380396484,0.0,-238.0,right,hammer,object,18.1,-217.8,-18.1,-217.8,-0.109696969697,-0.246341463415,-18.1,217.8,-0.0102261825285,7.9,-167.8,-7.9,-167.8,-0.0478787878788,-0.856097560976,-7.9,167.8,0.0515919992897,-1000.0,-1000.0,-1000.0,-1000.0,-1000.0,-1000.0,-1000.0,-1000.0,-1000.0,-1000.0,-1000.0,-1000.0,-1000.0,-1000.0,-1000.0,-1000.0,-1000.0,-1000.0,-1000.0,-1000.0,-1000.0,-1000.0,-1000.0,-1000.0,-1000.0,-1000.0,-1000.0,165.0,82.0,-16.4126798828,-0.482725878906,-0.0994707871685,object_hammer.png,264.0,651.0,0.0,0.0,0.0
362.549409403,1.0,control,1.0,kitchen,no,False,False,incompatible,('handle_right',,6.0,0.0,85.0,150.0,440.0,461.0,004A,undefined,SS06.asc,overlap,right,293.842436033,black,32.0,E,control,25.0,50.0,4000.0,50.0,50.0,0.0,peeler,False,0.0,11.0,asymm_kitchen_peeler,5.0,6.0,left,15063771.0,-1000.0,-1000.0,-1000.0,-1000.0,-1000.0,-1000.0,-1000.0,-1000.0,51.0,15063254.0,525.4,129.9,15063203.0,234.467567054,510.6,363.9,20.0,15063513.0,497.0,132.5,15063493.0,22.710790387,519.7,131.8,-1000.0,-1000.0,-1000.0,-1000.0,-1000.0,-1000.0,-1000.0,-1000.0,-1000.0,-1000.0,-1000.0,-1000.0,-1000.0,-1000.0,-1000.0,-1000.0,-1000.0,-1000.0,-1000.0,-1000.0,-1000.0,-1000.0,-1000.0,-1000.0,-1000.0,-1000.0,-1000.0,-1000.0,-1000.0,-1000.0,-1000.0,-1000.0,-1000.0,-1000.0,-1000.0,-1000.0,-1000.0,-1000.0,-1000.0,-1000.0,-1000.0,-1000.0,-1000.0,-1000.0,-1000.0,-1000.0,-1000.0,-1000.0,-1000.0,-1000.0,-1000.0,-1000.0,-1000.0,-1000.0,-1000.0,-1000.0,2.0,3.0,yes,180.0,240.0,15062946.0,even,asymm,15062496.0,168.0,168.0,upper,219.0,6.0,0.0,-0.764102748085,0.0,219.0,right,peeler,object,13.4,-254.1,13.4,-254.1,0.0930555555556,1.4625,13.4,-254.1,0.0948243119169,-15.0,-251.5,-15.0,-251.5,-0.104166666667,1.35416666667,-15.0,-251.5,-0.102397910305,-1000.0,-1000.0,-1000.0,-1000.0,-1000.0,-1000.0,-1000.0,-1000.0,-1000.0,-1000.0,-1000.0,-1000.0,-1000.0,-1000.0,-1000.0,-1000.0,-1000.0,-1000.0,-1000.0,-1000.0,-1000.0,-1000.0,-1000.0,-1000.0,-1000.0,-1000.0,-1000.0,144.0,24.0,-0.254700916028,-0.0074912034126,-0.00176875636131,object_peeler.png,257.0,547.0,0.0,0.0,0.0
480.044510943,1.0,control,1.0,garage,no,False,False,incompatible,('handle_left',,7.0,0.0,85.0,150.0,754.0,394.0,004A,undefined,SS06.asc,zero,left,371.407461756,black,32.0,F,control,25.0,50.0,4000.0,50.0,50.0,0.0,chisel,False,0.0,11.0,asymm_garage_chisel,6.0,7.0,right,15101406.0,-1000.0,-1000.0,-1000.0,-1000.0,-1000.0,-1000.0,-1000.0,-1000.0,36.0,15100784.0,543.0,165.2,15100748.0,198.389742678,512.3,361.2,8.0,15100986.0,527.8,164.6,15100978.0,15.646405338,538.3,176.2,8.0,15101226.0,504.1,162.0,15101218.0,17.2069753298,520.3,167.8,-1000.0,-1000.0,-1000.0,-1000.0,-1000.0,-1000.0,-1000.0,-1000.0,-1000.0,-1000.0,-1000.0,-1000.0,-1000.0,-1000.0,-1000.0,-1000.0,-1000.0,-1000.0,-1000.0,-1000.0,-1000.0,-1000.0,-1000.0,-1000.0,-1000.0,-1000.0,-1000.0,-1000.0,-1000.0,-1000.0,-1000.0,-1000.0,-1000.0,-1000.0,-1000.0,-1000.0,-1000.0,-1000.0,-1000.0,-1000.0,-1000.0,-1000.0,-1000.0,-1000.0,-1000.0,-1000.0,-1000.0,-1000.0,3.0,3.0,yes,180.0,240.0,15100530.0,even,asymm,15099770.0,173.0,173.0,upper,195.0,5.0,0.0,-24.5764355818,0.0,195.0,left,chisel,object,31.0,-218.8,-31.0,-218.8,-0.176136363636,0.820689655172,31.0,-218.8,-0.129590084125,15.8,-219.4,-15.8,-219.4,-0.0897727272727,0.841379310345,15.8,-219.4,-0.0432264477617,-7.9,-222.0,7.9,-222.0,0.0448863636364,0.931034482759,-7.9,-222.0,0.0914326431473,-1000.0,-1000.0,-1000.0,-1000.0,-1000.0,-1000.0,-1000.0,-1000.0,-1000.0,-1000.0,-1000.0,-1000.0,-1000.0,-1000.0,-1000.0,-1000.0,-1000.0,-1000.0,176.0,29.0,-8.19214519393,-0.24094544688,-0.046546279511,object_chisel.png,218.0,448.0,688.0,0.0,0.0
461.164078466,1.0,control,1.0,garage,no,False,False,compatible,('handle_right',,7.0,0.0,85.0,150.0,497.0,344.0,004A,undefined,SS06.asc,zero,right,350.929956823,black,32.0,E,control,25.0,50.0,4000.0,50.0,50.0,1.0,wrench,False,0.0,11.0,asymm_garage_wrench,5.0,7.0,right,15128800.0,-1000.0,-1000.0,-1000.0,-1000.0,-1000.0,-1000.0,-1000.0,-1000.0,50.0,15128205.0,466.1,598.4,15128155.0,211.491654682,507.5,391.0,22.0,15128380.0,543.9,634.5,15128358.0,81.3105159251,464.1,618.9,152.0,15128713.0,531.9,512.7,15128561.0,143.237599812,518.4,655.3,-1000.0,-1000.0,-1000.0,-1000.0,-1000.0,-1000.0,-1000.0,-1000.0,-1000.0,-1000.0,-1000.0,-1000.0,-1000.0,-1000.0,-1000.0,-1000.0,-1000.0,-1000.0,-1000.0,-1000.0,-1000.0,-1000.0,-1000.0,-1000.0,-1000.0,-1000.0,-1000.0,-1000.0,-1000.0,-1000.0,-1000.0,-1000.0,-1000.0,-1000.0,-1000.0,-1000.0,-1000.0,-1000.0,-1000.0,-1000.0,-1000.0,-1000.0,-1000.0,-1000.0,-1000.0,-1000.0,-1000.0,-1000.0,3.0,3.0,yes,180.0,240.0,15127993.0,even,asymm,15127493.0,179.0,179.0,lower,-235.0,-7.0,180.0,-21.1258078553,0.0,-235.0,right,wrench,object,45.9,-214.4,-45.9,-214.4,-0.260795454545,-0.588571428571,-45.9,214.4,-0.22078445482,-31.9,-250.5,31.9,-250.5,0.18125,0.442857142857,31.9,250.5,0.221260999726,-19.9,-128.7,19.9,-128.7,0.113068181818,-3.03714285714,19.9,128.7,0.153079181544,-1000.0,-1000.0,-1000.0,-1000.0,-1000.0,-1000.0,-1000.0,-1000.0,-1000.0,-1000.0,-1000.0,-1000.0,-1000.0,-1000.0,-1000.0,-1000.0,-1000.0,-1000.0,176.0,35.0,-7.04193595177,-0.207115763287,-0.0400109997259,object_wrench.png,162.0,365.0,568.0,0.0,0.0
268.456032661,1.0,control,1.0,garage,no,False,False,compatible,('handle_right',,7.0,0.0,85.0,150.0,542.0,477.0,004A,undefined,SS06.asc,overlap,right,424.119316289,black,32.0,E,control,25.0,50.0,4000.0,50.0,50.0,1.0,mallet,False,0.0,11.0,asymm_garage_mallet,6.0,7.0,right,15133551.0,-1000.0,-1000.0,-1000.0,-1000.0,-1000.0,-1000.0,-1000.0,-1000.0,31.0,15133135.0,483.5,564.9,15133104.0,169.854790924,498.4,395.7,-1000.0,-1000.0,-1000.0,-1000.0,-1000.0,-1000.0,-1000.0,-1000.0,-1000.0,-1000.0,-1000.0,-1000.0,-1000.0,-1000.0,-1000.0,-1000.0,-1000.0,-1000.0,-1000.0,-1000.0,-1000.0,-1000.0,-1000.0,-1000.0,-1000.0,-1000.0,-1000.0,-1000.0,-1000.0,-1000.0,-1000.0,-1000.0,-1000.0,-1000.0,-1000.0,-1000.0,-1000.0,-1000.0,-1000.0,-1000.0,-1000.0,-1000.0,-1000.0,-1000.0,-1000.0,-1000.0,-1000.0,-1000.0,-1000.0,-1000.0,-1000.0,-1000.0,-1000.0,-1000.0,-1000.0,-1000.0,-1000.0,-1000.0,-1000.0,-1000.0,-1000.0,-1000.0,-1000.0,-1000.0,1.0,3.0,yes,180.0,240.0,15132804.0,even,asymm,15132254.0,180.0,180.0,lower,-171.0,-6.0,180.0,-36.4525052012,0.0,-171.0,right,mallet,object,28.5,-180.9,-28.5,-180.9,-0.175925925926,0.122222222222,-28.5,180.9,-0.100920771191,-1000.0,-1000.0,-1000.0,-1000.0,-1000.0,-1000.0,-1000.0,-1000.0,-1000.0,-1000.0,-1000.0,-1000.0,-1000.0,-1000.0,-1000.0,-1000.0,-1000.0,-1000.0,-1000.0,-1000.0,-1000.0,-1000.0,-1000.0,-1000.0,-1000.0,-1000.0,-1000.0,-1000.0,-1000.0,-1000.0,-1000.0,-1000.0,-1000.0,-1000.0,-1000.0,-1000.0,162.0,81.0,-12.1508350671,-0.357377501973,-0.075005154735,object_mallet.png,300.0,0.0,0.0,0.0,0.0
252.868513771,1.0,control,1.0,garage,no,False,False,incompatible,('handle_left',,7.0,0.0,85.0,150.0,579.0,397.0,004A,undefined,SS06.asc,overlap,left,490.635803794,black,32.0,F,control,25.0,50.0,4000.0,50.0,50.0,0.0,hammer,False,0.0,11.0,asymm_garage_hammer,5.0,7.0,right,15144076.0,-1000.0,-1000.0,-1000.0,-1000.0,-1000.0,-1000.0,-1000.0,-1000.0,50.0,15143690.0,546.3,575.1,15143640.0,192.194953108,503.2,387.8,-1000.0,-1000.0,-1000.0,-1000.0,-1000.0,-1000.0,-1000.0,-1000.0,-1000.0,-1000.0,-1000.0,-1000.0,-1000.0,-1000.0,-1000.0,-1000.0,-1000.0,-1000.0,-1000.0,-1000.0,-1000.0,-1000.0,-1000.0,-1000.0,-1000.0,-1000.0,-1000.0,-1000.0,-1000.0,-1000.0,-1000.0,-1000.0,-1000.0,-1000.0,-1000.0,-1000.0,-1000.0,-1000.0,-1000.0,-1000.0,-1000.0,-1000.0,-1000.0,-1000.0,-1000.0,-1000.0,-1000.0,-1000.0,-1000.0,-1000.0,-1000.0,-1000.0,-1000.0,-1000.0,-1000.0,-1000.0,-1000.0,-1000.0,-1000.0,-1000.0,-1000.0,-1000.0,-1000.0,-1000.0,1.0,3.0,yes,180.0,240.0,15143425.0,even,asymm,15142835.0,182.0,182.0,lower,-218.0,-7.0,180.0,49.2380396484,0.0,-218.0,left,hammer,object,-34.3,-191.1,-34.3,-191.1,-0.207878787879,-0.328048780488,34.3,191.1,-0.307349575047,-1000.0,-1000.0,-1000.0,-1000.0,-1000.0,-1000.0,-1000.0,-1000.0,-1000.0,-1000.0,-1000.0,-1000.0,-1000.0,-1000.0,-1000.0,-1000.0,-1000.0,-1000.0,-1000.0,-1000.0,-1000.0,-1000.0,-1000.0,-1000.0,-1000.0,-1000.0,-1000.0,-1000.0,-1000.0,-1000.0,-1000.0,-1000.0,-1000.0,-1000.0,-1000.0,-1000.0,165.0,82.0,16.4126798828,0.482725878906,0.0994707871685,object_hammer.png,215.0,0.0,0.0,0.0,0.0
576.294142149,1.0,control,1.0,kitchen,no,False,False,compatible,('handle_left',,6.0,0.0,85.0,150.0,571.0,577.0,004A,undefined,SS06.asc,zero,left,475.145745097,black,32.0,F,control,25.0,50.0,4000.0,50.0,50.0,1.0,peeler,False,0.0,12.0,asymm_kitchen_peeler,6.0,6.0,left,15153601.0,-1000.0,-1000.0,-1000.0,-1000.0,-1000.0,-1000.0,-1000.0,-1000.0,155.0,15152880.0,550.1,562.6,15152725.0,167.728649908,515.4,398.5,9.0,15153498.0,502.1,612.6,15153489.0,21.1400094607,522.4,618.5,-1000.0,-1000.0,-1000.0,-1000.0,-1000.0,-1000.0,-1000.0,-1000.0,-1000.0,-1000.0,-1000.0,-1000.0,-1000.0,-1000.0,-1000.0,-1000.0,-1000.0,-1000.0,-1000.0,-1000.0,-1000.0,-1000.0,-1000.0,-1000.0,-1000.0,-1000.0,-1000.0,-1000.0,-1000.0,-1000.0,-1000.0,-1000.0,-1000.0,-1000.0,-1000.0,-1000.0,-1000.0,-1000.0,-1000.0,-1000.0,-1000.0,-1000.0,-1000.0,-1000.0,-1000.0,-1000.0,-1000.0,-1000.0,-1000.0,-1000.0,-1000.0,-1000.0,-1000.0,-1000.0,-1000.0,-1000.0,2.0,3.0,yes,180.0,240.0,15152446.0,even,asymm,15151866.0,184.0,184.0,lower,-225.0,-7.0,180.0,0.764102748085,0.0,-225.0,left,peeler,object,-38.1,-178.6,-38.1,-178.6,-0.264583333333,-1.93333333333,38.1,178.6,-0.266352089695,9.9,-228.6,9.9,-228.6,0.06875,0.15,-9.9,228.6,0.0669812436387,-1000.0,-1000.0,-1000.0,-1000.0,-1000.0,-1000.0,-1000.0,-1000.0,-1000.0,-1000.0,-1000.0,-1000.0,-1000.0,-1000.0,-1000.0,-1000.0,-1000.0,-1000.0,-1000.0,-1000.0,-1000.0,-1000.0,-1000.0,-1000.0,-1000.0,-1000.0,-1000.0,144.0,24.0,0.254700916028,0.0074912034126,0.00176875636131,object_peeler.png,279.0,1043.0,0.0,0.0,0.0
373.240462854,1.0,control,2.0,kitchen,no,False,False,compatible,('handle_left',,6.0,0.0,85.0,150.0,548.0,745.0,004A,undefined,SS06.asc,overlap,left,433.852434631,black,32.0,B,control,25.0,50.0,4000.0,50.0,50.0,0.0,spoon2,False,0.0,12.0,asymm_kitchen_spoon2,1.0,6.0,left,15365829.0,-1000.0,-1000.0,-1000.0,-1000.0,-1000.0,-1000.0,-1000.0,-1000.0,42.0,15365030.0,552.2,122.2,15364988.0,286.735697115,493.2,402.8,-1000.0,-1000.0,-1000.0,-1000.0,-1000.0,-1000.0,-1000.0,-1000.0,-1000.0,-1000.0,-1000.0,-1000.0,-1000.0,-1000.0,-1000.0,-1000.0,-1000.0,-1000.0,-1000.0,-1000.0,-1000.0,-1000.0,-1000.0,-1000.0,-1000.0,-1000.0,-1000.0,-1000.0,-1000.0,-1000.0,-1000.0,-1000.0,-1000.0,-1000.0,-1000.0,-1000.0,-1000.0,-1000.0,-1000.0,-1000.0,-1000.0,-1000.0,-1000.0,-1000.0,-1000.0,-1000.0,-1000.0,-1000.0,-1000.0,-1000.0,-1000.0,-1000.0,-1000.0,-1000.0,-1000.0,-1000.0,-1000.0,-1000.0,-1000.0,-1000.0,-1000.0,-1000.0,-1000.0,-1000.0,1.0,3.0,yes,180.0,240.0,15364709.0,even,asymm,15364159.0,197.0,197.0,upper,201.0,5.0,0.0,12.0262630064,0.0,201.0,left,spoon2,object,40.2,-261.8,-40.2,-261.8,-0.228409090909,1.38181818182,40.2,-261.8,-0.251186104179,-1000.0,-1000.0,-1000.0,-1000.0,-1000.0,-1000.0,-1000.0,-1000.0,-1000.0,-1000.0,-1000.0,-1000.0,-1000.0,-1000.0,-1000.0,-1000.0,-1000.0,-1000.0,-1000.0,-1000.0,-1000.0,-1000.0,-1000.0,-1000.0,-1000.0,-1000.0,-1000.0,-1000.0,-1000.0,-1000.0,-1000.0,-1000.0,-1000.0,-1000.0,-1000.0,-1000.0,176.0,44.0,4.00875433547,0.117904539278,0.0227770132697,object_spoon2.png,279.0,0.0,0.0,0.0,0.0
775.085682063,1.0,control,2.0,garage,no,False,False,compatible,('handle_right',,7.0,0.0,85.0,150.0,536.0,457.0,004A,undefined,SS06.asc,overlap,right,409.246321487,black,32.0,F,control,25.0,50.0,4000.0,50.0,50.0,0.0,screwdriver,False,0.0,11.0,asymm_garage_screwdriver,1.0,7.0,right,15376974.0,-1000.0,-1000.0,-1000.0,-1000.0,-1000.0,-1000.0,-1000.0,-1000.0,52.0,15376040.0,562.6,167.2,15375988.0,236.836188113,504.9,396.9,15.0,15376265.0,533.3,161.1,15376250.0,31.6480647118,562.9,172.3,-1000.0,-1000.0,-1000.0,-1000.0,-1000.0,-1000.0,-1000.0,-1000.0,-1000.0,-1000.0,-1000.0,-1000.0,-1000.0,-1000.0,-1000.0,-1000.0,-1000.0,-1000.0,-1000.0,-1000.0,-1000.0,-1000.0,-1000.0,-1000.0,-1000.0,-1000.0,-1000.0,-1000.0,-1000.0,-1000.0,-1000.0,-1000.0,-1000.0,-1000.0,-1000.0,-1000.0,-1000.0,-1000.0,-1000.0,-1000.0,-1000.0,-1000.0,-1000.0,-1000.0,-1000.0,-1000.0,-1000.0,-1000.0,-1000.0,-1000.0,-1000.0,-1000.0,-1000.0,-1000.0,-1000.0,-1000.0,2.0,3.0,yes,180.0,240.0,15375740.0,even,asymm,15375200.0,199.0,199.0,upper,184.0,5.0,0.0,53.8138704136,0.0,184.0,right,screwdriver,object,50.6,-216.8,50.6,-216.8,0.297647058824,1.36666666667,50.6,-216.8,0.192129665856,21.3,-222.9,21.3,-222.9,0.125294117647,1.62083333333,21.3,-222.9,0.0197767246792,-1000.0,-1000.0,-1000.0,-1000.0,-1000.0,-1000.0,-1000.0,-1000.0,-1000.0,-1000.0,-1000.0,-1000.0,-1000.0,-1000.0,-1000.0,-1000.0,-1000.0,-1000.0,-1000.0,-1000.0,-1000.0,-1000.0,-1000.0,-1000.0,-1000.0,-1000.0,-1000.0,170.0,24.0,17.9379568045,0.527586964839,0.105517392968,object_screwdriver.png,248.0,510.0,0.0,0.0,0.0
394.314791618,1.0,control,2.0,garage,no,False,False,compatible,('handle_right',,7.0,0.0,85.0,150.0,502.0,475.0,004A,undefined,SS06.asc,overlap,right,354.195407017,black,32.0,F,control,25.0,50.0,4000.0,50.0,50.0,0.0,hammer,False,0.0,12.0,asymm_garage_hammer,1.0,7.0,right,15387022.0,-1000.0,-1000.0,-1000.0,-1000.0,-1000.0,-1000.0,-1000.0,-1000.0,33.0,15386483.0,481.6,581.4,15386450.0,184.928634884,502.0,397.6,-1000.0,-1000.0,-1000.0,-1000.0,-1000.0,-1000.0,-1000.0,-1000.0,-1000.0,-1000.0,-1000.0,-1000.0,-1000.0,-1000.0,-1000.0,-1000.0,-1000.0,-1000.0,-1000.0,-1000.0,-1000.0,-1000.0,-1000.0,-1000.0,-1000.0,-1000.0,-1000.0,-1000.0,-1000.0,-1000.0,-1000.0,-1000.0,-1000.0,-1000.0,-1000.0,-1000.0,-1000.0,-1000.0,-1000.0,-1000.0,-1000.0,-1000.0,-1000.0,-1000.0,-1000.0,-1000.0,-1000.0,-1000.0,-1000.0,-1000.0,-1000.0,-1000.0,-1000.0,-1000.0,-1000.0,-1000.0,-1000.0,-1000.0,-1000.0,-1000.0,-1000.0,-1000.0,-1000.0,-1000.0,1.0,3.0,yes,180.0,240.0,15386151.0,even,asymm,15385641.0,201.0,201.0,lower,-180.0,-6.0,180.0,-49.2380396484,0.0,-180.0,right,hammer,object,30.4,-197.4,-30.4,-197.4,-0.184242424242,0.212195121951,-30.4,197.4,-0.0847716370739,-1000.0,-1000.0,-1000.0,-1000.0,-1000.0,-1000.0,-1000.0,-1000.0,-1000.0,-1000.0,-1000.0,-1000.0,-1000.0,-1000.0,-1000.0,-1000.0,-1000.0,-1000.0,-1000.0,-1000.0,-1000.0,-1000.0,-1000.0,-1000.0,-1000.0,-1000.0,-1000.0,-1000.0,-1000.0,-1000.0,-1000.0,-1000.0,-1000.0,-1000.0,-1000.0,-1000.0,165.0,82.0,-16.4126798828,-0.482725878906,-0.0994707871685,object_hammer.png,299.0,0.0,0.0,0.0,0.0
393.949191359,1.0,control,2.0,garage,no,False,False,incompatible,('handle_left',,7.0,0.0,85.0,150.0,529.0,470.0,004A,undefined,SS06.asc,zero,left,406.699552707,black,32.0,B,control,25.0,50.0,4000.0,50.0,50.0,0.0,paintbrush,False,0.0,12.0,asymm_garage_paintbrush,1.0,7.0,right,15397329.0,-1000.0,-1000.0,-1000.0,-1000.0,-1000.0,-1000.0,-1000.0,-1000.0,40.0,15396791.0,533.6,607.3,15396751.0,219.697291745,514.9,388.4,-1000.0,-1000.0,-1000.0,-1000.0,-1000.0,-1000.0,-1000.0,-1000.0,-1000.0,-1000.0,-1000.0,-1000.0,-1000.0,-1000.0,-1000.0,-1000.0,-1000.0,-1000.0,-1000.0,-1000.0,-1000.0,-1000.0,-1000.0,-1000.0,-1000.0,-1000.0,-1000.0,-1000.0,-1000.0,-1000.0,-1000.0,-1000.0,-1000.0,-1000.0,-1000.0,-1000.0,-1000.0,-1000.0,-1000.0,-1000.0,-1000.0,-1000.0,-1000.0,-1000.0,-1000.0,-1000.0,-1000.0,-1000.0,-1000.0,-1000.0,-1000.0,-1000.0,-1000.0,-1000.0,-1000.0,-1000.0,-1000.0,-1000.0,-1000.0,-1000.0,-1000.0,-1000.0,-1000.0,-1000.0,1.0,3.0,yes,180.0,240.0,15396463.0,even,asymm,15395923.0,203.0,203.0,lower,-218.0,-7.0,180.0,33.2045987775,0.0,-218.0,left,paintbrush,object,-21.6,-223.3,-21.6,-223.3,-0.122727272727,0.151428571429,21.6,223.3,-0.185614770412,-1000.0,-1000.0,-1000.0,-1000.0,-1000.0,-1000.0,-1000.0,-1000.0,-1000.0,-1000.0,-1000.0,-1000.0,-1000.0,-1000.0,-1000.0,-1000.0,-1000.0,-1000.0,-1000.0,-1000.0,-1000.0,-1000.0,-1000.0,-1000.0,-1000.0,-1000.0,-1000.0,-1000.0,-1000.0,-1000.0,-1000.0,-1000.0,-1000.0,-1000.0,-1000.0,-1000.0,176.0,35.0,11.0681995925,0.325535282132,0.0628874976847,object_paintbrush.png,288.0,0.0,0.0,0.0,0.0
552.985297855,1.0,control,2.0,kitchen,no,False,False,incompatible,('handle_right',,6.0,0.0,85.0,150.0,540.0,430.0,004A,undefined,SS06.asc,zero,right,422.714169955,black,32.0,F,control,25.0,50.0,4000.0,50.0,50.0,2.0,washingbrush,False,0.0,12.0,asymm_kitchen_washingbrush,2.0,6.0,left,15696009.0,-1000.0,-1000.0,-1000.0,-1000.0,-1000.0,-1000.0,-1000.0,-1000.0,34.0,15695307.0,484.0,554.9,15695273.0,181.380759729,499.7,374.2,200.0,15695769.0,486.4,508.1,15695569.0,79.6030150183,478.4,587.3,-1000.0,-1000.0,-1000.0,-1000.0,-1000.0,-1000.0,-1000.0,-1000.0,-1000.0,-1000.0,-1000.0,-1000.0,-1000.0,-1000.0,-1000.0,-1000.0,-1000.0,-1000.0,-1000.0,-1000.0,-1000.0,-1000.0,-1000.0,-1000.0,-1000.0,-1000.0,-1000.0,-1000.0,-1000.0,-1000.0,-1000.0,-1000.0,-1000.0,-1000.0,-1000.0,-1000.0,-1000.0,-1000.0,-1000.0,-1000.0,-1000.0,-1000.0,-1000.0,-1000.0,-1000.0,-1000.0,-1000.0,-1000.0,-1000.0,-1000.0,-1000.0,-1000.0,-1000.0,-1000.0,-1000.0,-1000.0,2.0,3.0,yes,180.0,240.0,15695025.0,even,asymm,15694475.0,221.0,221.0,lower,-188.0,-6.0,180.0,-30.890600737,0.0,-188.0,right,washingbrush,object,28.0,-170.9,-28.0,-170.9,-0.159090909091,-0.388636363636,-28.0,170.9,-0.100585983453,25.6,-124.1,-25.6,-124.1,-0.145454545455,-1.45227272727,-25.6,124.1,-0.0869496198163,-1000.0,-1000.0,-1000.0,-1000.0,-1000.0,-1000.0,-1000.0,-1000.0,-1000.0,-1000.0,-1000.0,-1000.0,-1000.0,-1000.0,-1000.0,-1000.0,-1000.0,-1000.0,-1000.0,-1000.0,-1000.0,-1000.0,-1000.0,-1000.0,-1000.0,-1000.0,-1000.0,176.0,44.0,-10.2968669123,-0.302849026833,-0.0585049256383,object_washingbrush.png,248.0,544.0,0.0,0.0,0.0
453.989600078,1.0,control,2.0,kitchen,no,False,False,compatible,('handle_left',,6.0,0.0,85.0,150.0,644.0,421.0,004A,undefined,SS06.asc,zero,left,390.75132701,black,32.0,B,control,25.0,50.0,4000.0,50.0,50.0,1.0,spoon,False,0.0,13.0,asymm_kitchen_spoon,2.0,6.0,left,15741417.0,-1000.0,-1000.0,-1000.0,-1000.0,-1000.0,-1000.0,-1000.0,-1000.0,50.0,15740840.0,556.8,155.2,15740790.0,214.956600271,512.3,365.5,21.0,15741195.0,580.8,146.3,15741174.0,31.1263553922,550.2,152.0,-1000.0,-1000.0,-1000.0,-1000.0,-1000.0,-1000.0,-1000.0,-1000.0,-1000.0,-1000.0,-1000.0,-1000.0,-1000.0,-1000.0,-1000.0,-1000.0,-1000.0,-1000.0,-1000.0,-1000.0,-1000.0,-1000.0,-1000.0,-1000.0,-1000.0,-1000.0,-1000.0,-1000.0,-1000.0,-1000.0,-1000.0,-1000.0,-1000.0,-1000.0,-1000.0,-1000.0,-1000.0,-1000.0,-1000.0,-1000.0,-1000.0,-1000.0,-1000.0,-1000.0,-1000.0,-1000.0,-1000.0,-1000.0,-1000.0,-1000.0,-1000.0,-1000.0,-1000.0,-1000.0,-1000.0,-1000.0,2.0,3.0,yes,180.0,240.0,15740540.0,even,asymm,15739890.0,230.0,230.0,upper,200.0,5.0,0.0,13.4578679943,0.0,200.0,left,spoon,object,44.8,-228.8,-44.8,-228.8,-0.24347826087,0.96,44.8,-228.8,-0.267858456511,68.8,-237.7,-68.8,-237.7,-0.373913043478,1.25666666667,68.8,-237.7,-0.39829323912,-1000.0,-1000.0,-1000.0,-1000.0,-1000.0,-1000.0,-1000.0,-1000.0,-1000.0,-1000.0,-1000.0,-1000.0,-1000.0,-1000.0,-1000.0,-1000.0,-1000.0,-1000.0,-1000.0,-1000.0,-1000.0,-1000.0,-1000.0,-1000.0,-1000.0,-1000.0,-1000.0,184.0,30.0,4.4859559981,0.131939882297,0.0243801956418,object_spoon.png,250.0,634.0,0.0,0.0,0.0
452.458883768,1.0,control,2.0,garage,no,False,False,compatible,('handle_right',,7.0,0.0,85.0,150.0,517.0,452.0,004A,undefined,SS06.asc,overlap,right,377.255243819,black,32.0,F,control,25.0,50.0,4000.0,50.0,50.0,0.0,mallet,False,0.0,13.0,asymm_garage_mallet,2.0,7.0,right,15769451.0,-1000.0,-1000.0,-1000.0,-1000.0,-1000.0,-1000.0,-1000.0,-1000.0,44.0,15768870.0,531.0,186.7,15768826.0,164.022254588,504.7,348.6,21.0,15769174.0,538.0,145.1,15769153.0,46.8113234165,522.3,189.2,-1000.0,-1000.0,-1000.0,-1000.0,-1000.0,-1000.0,-1000.0,-1000.0,-1000.0,-1000.0,-1000.0,-1000.0,-1000.0,-1000.0,-1000.0,-1000.0,-1000.0,-1000.0,-1000.0,-1000.0,-1000.0,-1000.0,-1000.0,-1000.0,-1000.0,-1000.0,-1000.0,-1000.0,-1000.0,-1000.0,-1000.0,-1000.0,-1000.0,-1000.0,-1000.0,-1000.0,-1000.0,-1000.0,-1000.0,-1000.0,-1000.0,-1000.0,-1000.0,-1000.0,-1000.0,-1000.0,-1000.0,-1000.0,-1000.0,-1000.0,-1000.0,-1000.0,-1000.0,-1000.0,-1000.0,-1000.0,2.0,3.0,yes,180.0,240.0,15768544.0,even,asymm,15768023.0,234.0,234.0,upper,201.0,5.0,0.0,-36.4525052012,0.0,201.0,right,mallet,object,19.0,-197.3,19.0,-197.3,0.117283950617,-0.0456790123457,19.0,-197.3,0.192289105352,26.0,-238.9,26.0,-238.9,0.16049382716,0.467901234568,26.0,-238.9,0.235498981895,-1000.0,-1000.0,-1000.0,-1000.0,-1000.0,-1000.0,-1000.0,-1000.0,-1000.0,-1000.0,-1000.0,-1000.0,-1000.0,-1000.0,-1000.0,-1000.0,-1000.0,-1000.0,-1000.0,-1000.0,-1000.0,-1000.0,-1000.0,-1000.0,-1000.0,-1000.0,-1000.0,162.0,81.0,-12.1508350671,-0.357377501973,-0.075005154735,object_mallet.png,282.0,609.0,0.0,0.0,0.0
579.308892414,1.0,control,2.0,garage,no,False,False,incompatible,('handle_left',,7.0,0.0,85.0,150.0,540.0,537.0,004A,undefined,SS06.asc,overlap,left,415.912757858,black,32.0,B,control,25.0,50.0,4000.0,50.0,50.0,0.0,screwdriver,False,0.0,13.0,asymm_garage_screwdriver,3.0,7.0,right,15774623.0,-1000.0,-1000.0,-1000.0,-1000.0,-1000.0,-1000.0,-1000.0,-1000.0,55.0,15773908.0,525.4,614.9,15773853.0,239.408876193,500.4,376.8,17.0,15774043.0,523.0,601.3,15774026.0,43.5165485764,521.8,644.8,15.0,15774253.0,502.1,588.3,15774238.0,31.1751503605,519.6,614.1,-1000.0,-1000.0,-1000.0,-1000.0,-1000.0,-1000.0,-1000.0,-1000.0,-1000.0,-1000.0,-1000.0,-1000.0,-1000.0,-1000.0,-1000.0,-1000.0,-1000.0,-1000.0,-1000.0,-1000.0,-1000.0,-1000.0,-1000.0,-1000.0,-1000.0,-1000.0,-1000.0,-1000.0,-1000.0,-1000.0,-1000.0,-1000.0,-1000.0,-1000.0,-1000.0,-1000.0,-1000.0,-1000.0,-1000.0,-1000.0,-1000.0,-1000.0,-1000.0,-1000.0,-1000.0,-1000.0,-1000.0,-1000.0,3.0,3.0,yes,180.0,240.0,15773504.0,even,asymm,15772954.0,235.0,235.0,lower,-230.0,-7.0,180.0,-53.8138704136,0.0,-230.0,left,screwdriver,object,-13.4,-230.9,-13.4,-230.9,-0.0788235294118,0.0375,13.4,230.9,0.0266938635561,-11.0,-217.3,-11.0,-217.3,-0.0647058823529,-0.529166666667,11.0,217.3,0.0408115106149,9.9,-204.3,9.9,-204.3,0.0582352941176,-1.07083333333,-9.9,204.3,0.163752687085,-1000.0,-1000.0,-1000.0,-1000.0,-1000.0,-1000.0,-1000.0,-1000.0,-1000.0,-1000.0,-1000.0,-1000.0,-1000.0,-1000.0,-1000.0,-1000.0,-1000.0,-1000.0,170.0,24.0,-17.9379568045,-0.527586964839,-0.105517392968,object_screwdriver.png,349.0,522.0,734.0,0.0,0.0
889.724314854,1.0,control,2.0,garage,no,False,False,compatible,('handle_right',,7.0,0.0,85.0,150.0,515.0,379.0,004A,undefined,SS06.asc,zero,right,279.307259789,black,32.0,F,control,25.0,50.0,4000.0,50.0,50.0,0.0,chisel2,False,0.0,14.0,asymm_garage_chisel2,4.0,7.0,right,15796677.0,-1000.0,-1000.0,-1000.0,-1000.0,-1000.0,-1000.0,-1000.0,-1000.0,47.0,15795647.0,553.0,151.2,15795600.0,232.55631576,499.0,377.4,17.0,15795926.0,515.4,121.9,15795909.0,41.6587325779,545.5,150.7,15.0,15796103.0,486.0,133.1,15796088.0,29.4334843333,515.2,136.8,-1000.0,-1000.0,-1000.0,-1000.0,-1000.0,-1000.0,-1000.0,-1000.0,-1000.0,-1000.0,-1000.0,-1000.0,-1000.0,-1000.0,-1000.0,-1000.0,-1000.0,-1000.0,-1000.0,-1000.0,-1000.0,-1000.0,-1000.0,-1000.0,-1000.0,-1000.0,-1000.0,-1000.0,-1000.0,-1000.0,-1000.0,-1000.0,-1000.0,-1000.0,-1000.0,-1000.0,-1000.0,-1000.0,-1000.0,-1000.0,-1000.0,-1000.0,-1000.0,-1000.0,-1000.0,-1000.0,-1000.0,-1000.0,3.0,3.0,yes,180.0,240.0,15795406.0,even,asymm,15794886.0,239.0,239.0,upper,214.0,6.0,0.0,1.20575132064,0.0,214.0,right,chisel2,object,41.0,-232.8,41.0,-232.8,0.232954545455,0.537142857143,41.0,-232.8,0.230670925529,3.4,-262.1,3.4,-262.1,0.0193181818182,1.37428571429,3.4,-262.1,0.0170345618927,-26.0,-250.9,-26.0,-250.9,-0.147727272727,1.05428571429,-26.0,-250.9,-0.150010892653,-1000.0,-1000.0,-1000.0,-1000.0,-1000.0,-1000.0,-1000.0,-1000.0,-1000.0,-1000.0,-1000.0,-1000.0,-1000.0,-1000.0,-1000.0,-1000.0,-1000.0,-1000.0,176.0,35.0,0.40191710688,0.0118210913788,0.00228361992545,object_chisel2.png,194.0,503.0,682.0,0.0,0.0
370.13985158,1.0,control,2.0,garage,no,False,False,compatible,('handle_right',,7.0,0.0,85.0,150.0,606.0,456.0,004A,undefined,SS06.asc,overlap,right,419.062475671,black,32.0,F,control,25.0,50.0,4000.0,50.0,50.0,0.0,chisel,False,0.0,14.0,asymm_garage_chisel,3.0,7.0,right,15811195.0,-1000.0,-1000.0,-1000.0,-1000.0,-1000.0,-1000.0,-1000.0,-1000.0,42.0,15810686.0,518.0,590.6,15810644.0,222.560418763,496.3,369.1,10.0,15810821.0,515.2,572.7,15810811.0,24.6657657493,523.0,596.1,11.0,15811035.0,504.4,562.6,15811024.0,24.0308135526,513.6,584.8,-1000.0,-1000.0,-1000.0,-1000.0,-1000.0,-1000.0,-1000.0,-1000.0,-1000.0,-1000.0,-1000.0,-1000.0,-1000.0,-1000.0,-1000.0,-1000.0,-1000.0,-1000.0,-1000.0,-1000.0,-1000.0,-1000.0,-1000.0,-1000.0,-1000.0,-1000.0,-1000.0,-1000.0,-1000.0,-1000.0,-1000.0,-1000.0,-1000.0,-1000.0,-1000.0,-1000.0,-1000.0,-1000.0,-1000.0,-1000.0,-1000.0,-1000.0,-1000.0,-1000.0,-1000.0,-1000.0,-1000.0,-1000.0,3.0,3.0,yes,180.0,240.0,15810368.0,even,asymm,15809758.0,242.0,242.0,lower,-207.0,-7.0,180.0,24.5764355818,0.0,-207.0,right,chisel,object,-6.0,-206.6,6.0,-206.6,0.0340909090909,-0.0137931034483,6.0,206.6,-0.0124553704201,-3.2,-188.7,3.2,-188.7,0.0181818181818,-0.631034482759,3.2,188.7,-0.0283644613292,7.6,-178.6,-7.6,-178.6,-0.0431818181818,-0.979310344828,-7.6,178.6,-0.0897280976928,-1000.0,-1000.0,-1000.0,-1000.0,-1000.0,-1000.0,-1000.0,-1000.0,-1000.0,-1000.0,-1000.0,-1000.0,-1000.0,-1000.0,-1000.0,-1000.0,-1000.0,-1000.0,176.0,29.0,8.19214519393,0.24094544688,0.046546279511,object_chisel.png,276.0,443.0,656.0,0.0,0.0
331.182394117,1.0,control,2.0,garage,no,False,False,incompatible,('handle_left',,7.0,0.0,85.0,150.0,501.0,438.0,004A,undefined,SS06.asc,zero,left,353.170391769,black,32.0,B,control,25.0,50.0,4000.0,50.0,50.0,0.0,hammer,False,0.0,14.0,asymm_garage_hammer,3.0,7.0,right,15831281.0,-1000.0,-1000.0,-1000.0,-1000.0,-1000.0,-1000.0,-1000.0,-1000.0,50.0,15830788.0,543.9,562.3,15830738.0,193.435312185,494.8,375.2,-1000.0,-1000.0,-1000.0,-1000.0,-1000.0,-1000.0,-1000.0,-1000.0,-1000.0,-1000.0,-1000.0,-1000.0,-1000.0,-1000.0,-1000.0,-1000.0,-1000.0,-1000.0,-1000.0,-1000.0,-1000.0,-1000.0,-1000.0,-1000.0,-1000.0,-1000.0,-1000.0,-1000.0,-1000.0,-1000.0,-1000.0,-1000.0,-1000.0,-1000.0,-1000.0,-1000.0,-1000.0,-1000.0,-1000.0,-1000.0,-1000.0,-1000.0,-1000.0,-1000.0,-1000.0,-1000.0,-1000.0,-1000.0,-1000.0,-1000.0,-1000.0,-1000.0,-1000.0,-1000.0,-1000.0,-1000.0,-1000.0,-1000.0,-1000.0,-1000.0,-1000.0,-1000.0,-1000.0,-1000.0,1.0,3.0,yes,180.0,240.0,15830510.0,even,asymm,15830000.0,245.0,245.0,lower,-232.0,-7.0,180.0,49.2380396484,0.0,-232.0,left,hammer,object,-31.9,-178.3,-31.9,-178.3,-0.193333333333,-0.65487804878,31.9,178.3,-0.292804120502,-1000.0,-1000.0,-1000.0,-1000.0,-1000.0,-1000.0,-1000.0,-1000.0,-1000.0,-1000.0,-1000.0,-1000.0,-1000.0,-1000.0,-1000.0,-1000.0,-1000.0,-1000.0,-1000.0,-1000.0,-1000.0,-1000.0,-1000.0,-1000.0,-1000.0,-1000.0,-1000.0,-1000.0,-1000.0,-1000.0,-1000.0,-1000.0,-1000.0,-1000.0,-1000.0,-1000.0,165.0,82.0,16.4126798828,0.482725878906,0.0994707871685,object_hammer.png,228.0,0.0,0.0,0.0,0.0
554.180807663,1.0,control,2.0,kitchen,no,False,False,compatible,('handle_left',,6.0,0.0,85.0,150.0,560.0,394.0,004A,undefined,SS06.asc,zero,left,447.713509353,black,32.0,B,control,25.0,50.0,4000.0,50.0,50.0,0.0,washingbrush,False,0.0,14.0,asymm_kitchen_washingbrush,4.0,6.0,left,15901618.0,-1000.0,-1000.0,-1000.0,-1000.0,-1000.0,-1000.0,-1000.0,-1000.0,52.0,15900909.0,555.8,115.7,15900857.0,278.191660551,495.6,387.3,18.0,15901163.0,574.8,83.4,15901145.0,47.6287728164,553.7,126.1,-1000.0,-1000.0,-1000.0,-1000.0,-1000.0,-1000.0,-1000.0,-1000.0,-1000.0,-1000.0,-1000.0,-1000.0,-1000.0,-1000.0,-1000.0,-1000.0,-1000.0,-1000.0,-1000.0,-1000.0,-1000.0,-1000.0,-1000.0,-1000.0,-1000.0,-1000.0,-1000.0,-1000.0,-1000.0,-1000.0,-1000.0,-1000.0,-1000.0,-1000.0,-1000.0,-1000.0,-1000.0,-1000.0,-1000.0,-1000.0,-1000.0,-1000.0,-1000.0,-1000.0,-1000.0,-1000.0,-1000.0,-1000.0,-1000.0,-1000.0,-1000.0,-1000.0,-1000.0,-1000.0,-1000.0,-1000.0,2.0,3.0,yes,180.0,240.0,15900668.0,even,asymm,15900098.0,257.0,257.0,upper,222.0,6.0,0.0,30.890600737,0.0,222.0,left,washingbrush,object,43.8,-268.3,-43.8,-268.3,-0.248863636364,1.05227272727,43.8,-268.3,-0.307368562002,62.8,-300.6,-62.8,-300.6,-0.356818181818,1.78636363636,62.8,-300.6,-0.415323107456,-1000.0,-1000.0,-1000.0,-1000.0,-1000.0,-1000.0,-1000.0,-1000.0,-1000.0,-1000.0,-1000.0,-1000.0,-1000.0,-1000.0,-1000.0,-1000.0,-1000.0,-1000.0,-1000.0,-1000.0,-1000.0,-1000.0,-1000.0,-1000.0,-1000.0,-1000.0,-1000.0,176.0,44.0,10.2968669123,0.302849026833,0.0585049256383,object_washingbrush.png,189.0,477.0,0.0,0.0,0.0
732.096149653,1.0,control,2.0,kitchen,no,False,False,compatible,('handle_left',,6.0,0.0,85.0,150.0,549.0,416.0,004A,undefined,SS06.asc,zero,left,434.366674964,black,32.0,B,control,25.0,50.0,4000.0,50.0,50.0,0.0,sharpeningsteel,False,0.0,16.0,asymm_kitchen_sharpeningsteel,5.0,6.0,left,15919319.0,-1000.0,-1000.0,-1000.0,-1000.0,-1000.0,-1000.0,-1000.0,-1000.0,32.0,15918434.0,482.3,560.7,15918402.0,180.533265633,494.8,380.6,-1000.0,-1000.0,-1000.0,-1000.0,-1000.0,-1000.0,-1000.0,-1000.0,-1000.0,-1000.0,-1000.0,-1000.0,-1000.0,-1000.0,-1000.0,-1000.0,-1000.0,-1000.0,-1000.0,-1000.0,-1000.0,-1000.0,-1000.0,-1000.0,-1000.0,-1000.0,-1000.0,-1000.0,-1000.0,-1000.0,-1000.0,-1000.0,-1000.0,-1000.0,-1000.0,-1000.0,-1000.0,-1000.0,-1000.0,-1000.0,-1000.0,-1000.0,-1000.0,-1000.0,-1000.0,-1000.0,-1000.0,-1000.0,-1000.0,-1000.0,-1000.0,-1000.0,-1000.0,-1000.0,-1000.0,-1000.0,-1000.0,-1000.0,-1000.0,-1000.0,-1000.0,-1000.0,-1000.0,-1000.0,1.0,3.0,yes,180.0,240.0,15918170.0,even,asymm,15917610.0,260.0,260.0,lower,-194.0,-6.0,180.0,-21.7534568235,0.0,-194.0,left,sharpeningsteel,object,29.7,-176.7,29.7,-176.7,0.16408839779,-0.692,-29.7,176.7,0.204150012566,-1000.0,-1000.0,-1000.0,-1000.0,-1000.0,-1000.0,-1000.0,-1000.0,-1000.0,-1000.0,-1000.0,-1000.0,-1000.0,-1000.0,-1000.0,-1000.0,-1000.0,-1000.0,-1000.0,-1000.0,-1000.0,-1000.0,-1000.0,-1000.0,-1000.0,-1000.0,-1000.0,-1000.0,-1000.0,-1000.0,-1000.0,-1000.0,-1000.0,-1000.0,-1000.0,-1000.0,181.0,25.0,-7.2511522745,-0.213269184544,-0.0400616147762,object_sharpeningsteel.png,232.0,0.0,0.0,0.0,0.0
310.876089653,1.0,control,2.0,garage,no,False,False,incompatible,('handle_left',,7.0,0.0,85.0,150.0,570.0,424.0,004A,undefined,SS06.asc,zero,left,473.552830453,black,32.0,B,control,25.0,50.0,4000.0,50.0,50.0,0.0,mallet,False,0.0,15.0,asymm_garage_mallet,4.0,7.0,right,15933788.0,-1000.0,-1000.0,-1000.0,-1000.0,-1000.0,-1000.0,-1000.0,-1000.0,50.0,15933330.0,569.6,147.2,15933280.0,229.593205474,504.6,367.4,-1000.0,-1000.0,-1000.0,-1000.0,-1000.0,-1000.0,-1000.0,-1000.0,-1000.0,-1000.0,-1000.0,-1000.0,-1000.0,-1000.0,-1000.0,-1000.0,-1000.0,-1000.0,-1000.0,-1000.0,-1000.0,-1000.0,-1000.0,-1000.0,-1000.0,-1000.0,-1000.0,-1000.0,-1000.0,-1000.0,-1000.0,-1000.0,-1000.0,-1000.0,-1000.0,-1000.0,-1000.0,-1000.0,-1000.0,-1000.0,-1000.0,-1000.0,-1000.0,-1000.0,-1000.0,-1000.0,-1000.0,-1000.0,-1000.0,-1000.0,-1000.0,-1000.0,-1000.0,-1000.0,-1000.0,-1000.0,-1000.0,-1000.0,-1000.0,-1000.0,-1000.0,-1000.0,-1000.0,-1000.0,1.0,3.0,yes,180.0,240.0,15933051.0,even,asymm,15932471.0,262.0,262.0,upper,209.0,6.0,0.0,36.4525052012,0.0,209.0,left,mallet,object,57.6,-236.8,-57.6,-236.8,-0.355555555556,0.343209876543,57.6,-236.8,-0.430560710291,-1000.0,-1000.0,-1000.0,-1000.0,-1000.0,-1000.0,-1000.0,-1000.0,-1000.0,-1000.0,-1000.0,-1000.0,-1000.0,-1000.0,-1000.0,-1000.0,-1000.0,-1000.0,-1000.0,-1000.0,-1000.0,-1000.0,-1000.0,-1000.0,-1000.0,-1000.0,-1000.0,-1000.0,-1000.0,-1000.0,-1000.0,-1000.0,-1000.0,-1000.0,-1000.0,-1000.0,162.0,81.0,12.1508350671,0.357377501973,0.075005154735,object_mallet.png,229.0,0.0,0.0,0.0,0.0
574.621186307,1.0,control,2.0,kitchen,no,False,False,incompatible,('handle_right',,6.0,0.0,85.0,150.0,411.0,523.0,004A,undefined,SS06.asc,overlap,right,263.512969463,black,32.0,F,control,25.0,50.0,4000.0,50.0,50.0,0.0,peeler,False,0.0,17.0,asymm_kitchen_peeler,5.0,6.0,left,15961155.0,-1000.0,-1000.0,-1000.0,-1000.0,-1000.0,-1000.0,-1000.0,-1000.0,50.0,15960424.0,519.7,150.7,15960374.0,228.603105841,499.4,378.4,14.0,15960687.0,491.2,136.5,15960673.0,33.8850999703,513.4,162.1,-1000.0,-1000.0,-1000.0,-1000.0,-1000.0,-1000.0,-1000.0,-1000.0,-1000.0,-1000.0,-1000.0,-1000.0,-1000.0,-1000.0,-1000.0,-1000.0,-1000.0,-1000.0,-1000.0,-1000.0,-1000.0,-1000.0,-1000.0,-1000.0,-1000.0,-1000.0,-1000.0,-1000.0,-1000.0,-1000.0,-1000.0,-1000.0,-1000.0,-1000.0,-1000.0,-1000.0,-1000.0,-1000.0,-1000.0,-1000.0,-1000.0,-1000.0,-1000.0,-1000.0,-1000.0,-1000.0,-1000.0,-1000.0,-1000.0,-1000.0,-1000.0,-1000.0,-1000.0,-1000.0,-1000.0,-1000.0,2.0,3.0,yes,180.0,240.0,15960055.0,even,asymm,15959635.0,267.0,267.0,upper,198.0,5.0,0.0,-0.764102748085,0.0,198.0,right,peeler,object,7.7,-233.3,7.7,-233.3,0.0534722222222,1.47083333333,7.7,-233.3,0.0552409785835,-20.8,-247.5,-20.8,-247.5,-0.144444444444,2.0625,-20.8,-247.5,-0.142675688083,-1000.0,-1000.0,-1000.0,-1000.0,-1000.0,-1000.0,-1000.0,-1000.0,-1000.0,-1000.0,-1000.0,-1000.0,-1000.0,-1000.0,-1000.0,-1000.0,-1000.0,-1000.0,-1000.0,-1000.0,-1000.0,-1000.0,-1000.0,-1000.0,-1000.0,-1000.0,-1000.0,144.0,24.0,-0.254700916028,-0.0074912034126,-0.00176875636131,object_peeler.png,319.0,618.0,0.0,0.0,0.0
620.75675822,1.0,control,2.0,garage,no,False,False,incompatible,('handle_left',,7.0,0.0,85.0,150.0,544.0,441.0,004A,undefined,SS06.asc,overlap,left,419.56599617,black,32.0,B,control,25.0,50.0,4000.0,50.0,50.0,0.0,wrench,False,0.0,16.0,asymm_garage_wrench,5.0,7.0,right,15965638.0,-1000.0,-1000.0,-1000.0,-1000.0,-1000.0,-1000.0,-1000.0,-1000.0,49.0,15964883.0,575.8,183.4,15964834.0,210.505534369,503.5,381.1,-1000.0,-1000.0,-1000.0,-1000.0,-1000.0,-1000.0,-1000.0,-1000.0,-1000.0,-1000.0,-1000.0,-1000.0,-1000.0,-1000.0,-1000.0,-1000.0,-1000.0,-1000.0,-1000.0,-1000.0,-1000.0,-1000.0,-1000.0,-1000.0,-1000.0,-1000.0,-1000.0,-1000.0,-1000.0,-1000.0,-1000.0,-1000.0,-1000.0,-1000.0,-1000.0,-1000.0,-1000.0,-1000.0,-1000.0,-1000.0,-1000.0,-1000.0,-1000.0,-1000.0,-1000.0,-1000.0,-1000.0,-1000.0,-1000.0,-1000.0,-1000.0,-1000.0,-1000.0,-1000.0,-1000.0,-1000.0,-1000.0,-1000.0,-1000.0,-1000.0,-1000.0,-1000.0,-1000.0,-1000.0,1.0,3.0,yes,180.0,240.0,15964575.0,even,asymm,15964025.0,268.0,268.0,upper,183.0,5.0,0.0,21.1258078553,0.0,183.0,left,wrench,object,63.8,-200.6,-63.8,-200.6,-0.3625,0.502857142857,63.8,-200.6,-0.402510999726,-1000.0,-1000.0,-1000.0,-1000.0,-1000.0,-1000.0,-1000.0,-1000.0,-1000.0,-1000.0,-1000.0,-1000.0,-1000.0,-1000.0,-1000.0,-1000.0,-1000.0,-1000.0,-1000.0,-1000.0,-1000.0,-1000.0,-1000.0,-1000.0,-1000.0,-1000.0,-1000.0,-1000.0,-1000.0,-1000.0,-1000.0,-1000.0,-1000.0,-1000.0,-1000.0,-1000.0,176.0,35.0,7.04193595177,0.207115763287,0.0400109997259,object_wrench.png,259.0,0.0,0.0,0.0,0.0
462.188494823,1.0,control,2.0,garage,no,False,False,compatible,('handle_right',,7.0,0.0,85.0,150.0,503.0,493.0,004A,undefined,SS06.asc,overlap,right,351.131990395,black,32.0,F,control,25.0,50.0,4000.0,50.0,50.0,0.0,paintbrush,False,0.0,16.0,asymm_garage_paintbrush,5.0,7.0,right,15988885.0,-1000.0,-1000.0,-1000.0,-1000.0,-1000.0,-1000.0,-1000.0,-1000.0,34.0,15988230.0,497.5,562.1,15988196.0,180.221752294,494.7,381.9,20.0,15988418.0,464.6,593.9,15988398.0,49.5370568363,501.0,560.3,6.0,15988612.0,454.7,591.9,15988606.0,10.8166538264,464.9,595.5,-1000.0,-1000.0,-1000.0,-1000.0,-1000.0,-1000.0,-1000.0,-1000.0,-1000.0,-1000.0,-1000.0,-1000.0,-1000.0,-1000.0,-1000.0,-1000.0,-1000.0,-1000.0,-1000.0,-1000.0,-1000.0,-1000.0,-1000.0,-1000.0,-1000.0,-1000.0,-1000.0,-1000.0,-1000.0,-1000.0,-1000.0,-1000.0,-1000.0,-1000.0,-1000.0,-1000.0,-1000.0,-1000.0,-1000.0,-1000.0,-1000.0,-1000.0,-1000.0,-1000.0,-1000.0,-1000.0,-1000.0,-1000.0,3.0,3.0,yes,180.0,240.0,15987928.0,even,asymm,15987417.0,273.0,273.0,lower,-212.0,-7.0,180.0,-33.2045987775,0.0,-212.0,right,paintbrush,object,14.5,-178.1,-14.5,-178.1,-0.0823863636364,-0.968571428571,-14.5,178.1,-0.0194988659517,47.4,-209.9,-47.4,-209.9,-0.269318181818,-0.06,-47.4,209.9,-0.206430684134,57.3,-207.9,-57.3,-207.9,-0.325568181818,-0.117142857143,-57.3,207.9,-0.262680684134,-1000.0,-1000.0,-1000.0,-1000.0,-1000.0,-1000.0,-1000.0,-1000.0,-1000.0,-1000.0,-1000.0,-1000.0,-1000.0,-1000.0,-1000.0,-1000.0,-1000.0,-1000.0,176.0,35.0,-11.0681995925,-0.325535282132,-0.0628874976847,object_paintbrush.png,268.0,470.0,678.0,0.0,0.0
532.205366877,1.0,control,2.0,garage,no,False,False,incompatible,('handle_left',,7.0,0.0,85.0,150.0,579.0,404.0,004A,undefined,SS06.asc,overlap,left,483.183830671,black,32.0,B,control,25.0,50.0,4000.0,50.0,50.0,1.0,chisel2,False,0.0,16.0,asymm_garage_chisel2,6.0,7.0,right,15998287.0,-1000.0,-1000.0,-1000.0,-1000.0,-1000.0,-1000.0,-1000.0,-1000.0,36.0,15997609.0,582.7,171.6,15997573.0,242.325504229,490.5,395.7,164.0,15997938.0,618.1,90.2,15997774.0,116.556252514,567.5,195.2,-1000.0,-1000.0,-1000.0,-1000.0,-1000.0,-1000.0,-1000.0,-1000.0,-1000.0,-1000.0,-1000.0,-1000.0,-1000.0,-1000.0,-1000.0,-1000.0,-1000.0,-1000.0,-1000.0,-1000.0,-1000.0,-1000.0,-1000.0,-1000.0,-1000.0,-1000.0,-1000.0,-1000.0,-1000.0,-1000.0,-1000.0,-1000.0,-1000.0,-1000.0,-1000.0,-1000.0,-1000.0,-1000.0,-1000.0,-1000.0,-1000.0,-1000.0,-1000.0,-1000.0,-1000.0,-1000.0,-1000.0,-1000.0,-1000.0,-1000.0,-1000.0,-1000.0,-1000.0,-1000.0,-1000.0,-1000.0,2.0,3.0,yes,180.0,240.0,15997349.0,even,asymm,15996759.0,275.0,275.0,upper,185.0,5.0,0.0,-1.20575132064,0.0,185.0,left,chisel2,object,70.7,-212.4,-70.7,-212.4,-0.401704545455,0.782857142857,70.7,-212.4,-0.399420925529,106.1,-293.8,-106.1,-293.8,-0.602840909091,3.10857142857,106.1,-293.8,-0.600557289165,-1000.0,-1000.0,-1000.0,-1000.0,-1000.0,-1000.0,-1000.0,-1000.0,-1000.0,-1000.0,-1000.0,-1000.0,-1000.0,-1000.0,-1000.0,-1000.0,-1000.0,-1000.0,-1000.0,-1000.0,-1000.0,-1000.0,-1000.0,-1000.0,-1000.0,-1000.0,-1000.0,176.0,35.0,-0.40191710688,-0.0118210913788,-0.00228361992545,object_chisel2.png,224.0,425.0,0.0,0.0,0.0
375.261238637,1.0,control,2.0,kitchen,no,False,False,incompatible,('handle_right',,6.0,0.0,85.0,150.0,464.0,414.0,004A,undefined,SS06.asc,overlap,right,310.765477105,black,32.0,F,control,25.0,50.0,4000.0,50.0,50.0,0.0,spoon2,False,0.0,16.0,asymm_kitchen_spoon2,5.0,6.0,left,16003510.0,-1000.0,-1000.0,-1000.0,-1000.0,-1000.0,-1000.0,-1000.0,-1000.0,49.0,16002983.0,542.8,174.4,16002934.0,223.647155135,487.1,391.0,10.0,16003362.0,514.7,170.2,16003352.0,23.1311478314,533.9,183.1,-1000.0,-1000.0,-1000.0,-1000.0,-1000.0,-1000.0,-1000.0,-1000.0,-1000.0,-1000.0,-1000.0,-1000.0,-1000.0,-1000.0,-1000.0,-1000.0,-1000.0,-1000.0,-1000.0,-1000.0,-1000.0,-1000.0,-1000.0,-1000.0,-1000.0,-1000.0,-1000.0,-1000.0,-1000.0,-1000.0,-1000.0,-1000.0,-1000.0,-1000.0,-1000.0,-1000.0,-1000.0,-1000.0,-1000.0,-1000.0,-1000.0,-1000.0,-1000.0,-1000.0,-1000.0,-1000.0,-1000.0,-1000.0,-1000.0,-1000.0,-1000.0,-1000.0,-1000.0,-1000.0,-1000.0,-1000.0,2.0,3.0,yes,180.0,240.0,16002719.0,even,asymm,16002249.0,276.0,276.0,upper,182.0,5.0,0.0,-12.0262630064,0.0,182.0,right,spoon2,object,30.8,-209.6,30.8,-209.6,0.175,0.627272727273,30.8,-209.6,0.19777701327,2.7,-213.8,2.7,-213.8,0.0153409090909,0.722727272727,2.7,-213.8,0.0381179223606,-1000.0,-1000.0,-1000.0,-1000.0,-1000.0,-1000.0,-1000.0,-1000.0,-1000.0,-1000.0,-1000.0,-1000.0,-1000.0,-1000.0,-1000.0,-1000.0,-1000.0,-1000.0,-1000.0,-1000.0,-1000.0,-1000.0,-1000.0,-1000.0,-1000.0,-1000.0,-1000.0,176.0,44.0,-4.00875433547,-0.117904539278,-0.0227770132697,object_spoon2.png,215.0,633.0,0.0,0.0,0.0
619.766997241,1.0,control,2.0,garage,no,False,False,incompatible,('handle_left',,7.0,0.0,85.0,150.0,541.0,454.0,004A,undefined,SS06.asc,overlap,left,416.511534881,black,32.0,B,control,25.0,50.0,4000.0,50.0,50.0,1.0,chisel,False,0.0,16.0,asymm_garage_chisel,5.0,7.0,right,16014896.0,-1000.0,-1000.0,-1000.0,-1000.0,-1000.0,-1000.0,-1000.0,-1000.0,53.0,16014123.0,511.2,628.5,16014070.0,235.157564199,490.0,394.3,10.0,16014262.0,509.9,632.7,16014252.0,22.3439029715,508.5,655.0,16.0,16014726.0,535.1,596.8,16014710.0,39.7001259444,503.4,620.7,-1000.0,-1000.0,-1000.0,-1000.0,-1000.0,-1000.0,-1000.0,-1000.0,-1000.0,-1000.0,-1000.0,-1000.0,-1000.0,-1000.0,-1000.0,-1000.0,-1000.0,-1000.0,-1000.0,-1000.0,-1000.0,-1000.0,-1000.0,-1000.0,-1000.0,-1000.0,-1000.0,-1000.0,-1000.0,-1000.0,-1000.0,-1000.0,-1000.0,-1000.0,-1000.0,-1000.0,-1000.0,-1000.0,-1000.0,-1000.0,-1000.0,-1000.0,-1000.0,-1000.0,-1000.0,-1000.0,-1000.0,-1000.0,3.0,3.0,yes,180.0,240.0,16013820.0,even,asymm,16013270.0,278.0,278.0,lower,-229.0,-7.0,180.0,-24.5764355818,0.0,-229.0,left,chisel,object,0.8,-244.5,0.8,-244.5,0.00454545454545,0.534482758621,-0.8,244.5,0.0510917340564,2.1,-248.7,2.1,-248.7,0.0119318181818,0.679310344828,-2.1,248.7,0.0584780976928,-23.1,-212.8,-23.1,-212.8,-0.13125,-0.558620689655,23.1,212.8,-0.084703720489,-1000.0,-1000.0,-1000.0,-1000.0,-1000.0,-1000.0,-1000.0,-1000.0,-1000.0,-1000.0,-1000.0,-1000.0,-1000.0,-1000.0,-1000.0,-1000.0,-1000.0,-1000.0,176.0,29.0,-8.19214519393,-0.24094544688,-0.046546279511,object_chisel.png,250.0,432.0,890.0,0.0,0.0
167.95442741,1.0,control,3.0,kitchen,no,False,False,incompatible,('handle_left',,7.0,0.0,85.0,150.0,575.0,465.0,004A,undefined,SS06.asc,overlap,left,482.132754384,black,32.0,C,control,25.0,50.0,4000.0,50.0,50.0,0.0,fork,False,0.0,16.0,asymm_kitchen_fork,1.0,7.0,right,16145759.0,-1000.0,-1000.0,-1000.0,-1000.0,-1000.0,-1000.0,-1000.0,-1000.0,43.0,16145447.0,533.0,637.9,16145404.0,262.939841028,490.0,378.5,7.0,16145607.0,545.6,616.2,16145600.0,15.6540729524,540.8,631.1,-1000.0,-1000.0,-1000.0,-1000.0,-1000.0,-1000.0,-1000.0,-1000.0,-1000.0,-1000.0,-1000.0,-1000.0,-1000.0,-1000.0,-1000.0,-1000.0,-1000.0,-1000.0,-1000.0,-1000.0,-1000.0,-1000.0,-1000.0,-1000.0,-1000.0,-1000.0,-1000.0,-1000.0,-1000.0,-1000.0,-1000.0,-1000.0,-1000.0,-1000.0,-1000.0,-1000.0,-1000.0,-1000.0,-1000.0,-1000.0,-1000.0,-1000.0,-1000.0,-1000.0,-1000.0,-1000.0,-1000.0,-1000.0,-1000.0,-1000.0,-1000.0,-1000.0,-1000.0,-1000.0,-1000.0,-1000.0,2.0,3.0,yes,180.0,240.0,16145125.0,even,asymm,16144545.0,291.0,291.0,lower,-223.0,-7.0,180.0,32.1684136693,0.0,-223.0,left,fork,object,-21.0,-253.9,-21.0,-253.9,-0.112299465241,0.835135135135,21.0,253.9,-0.169640666077,-33.6,-232.2,-33.6,-232.2,-0.179679144385,0.248648648649,33.6,232.2,-0.237020345222,-1000.0,-1000.0,-1000.0,-1000.0,-1000.0,-1000.0,-1000.0,-1000.0,-1000.0,-1000.0,-1000.0,-1000.0,-1000.0,-1000.0,-1000.0,-1000.0,-1000.0,-1000.0,-1000.0,-1000.0,-1000.0,-1000.0,-1000.0,-1000.0,-1000.0,-1000.0,-1000.0,187.0,37.0,10.7228045564,0.315376604601,0.0573412008365,object_fork.png,279.0,475.0,0.0,0.0,0.0
562.986714386,1.0,control,3.0,garage,no,False,False,incompatible,('handle_right',,6.0,0.0,85.0,150.0,546.0,630.0,004A,undefined,SS06.asc,overlap,right,392.068532886,black,32.0,A,control,25.0,50.0,4000.0,50.0,50.0,1.0,hammer,False,0.0,18.0,asymm_garage_hammer,2.0,6.0,left,16230388.0,-1000.0,-1000.0,-1000.0,-1000.0,-1000.0,-1000.0,-1000.0,-1000.0,196.0,16229684.0,502.0,564.4,16229488.0,185.400674217,502.5,379.0,11.0,16229984.0,472.6,596.5,16229973.0,25.9416653282,496.7,606.1,-1000.0,-1000.0,-1000.0,-1000.0,-1000.0,-1000.0,-1000.0,-1000.0,-1000.0,-1000.0,-1000.0,-1000.0,-1000.0,-1000.0,-1000.0,-1000.0,-1000.0,-1000.0,-1000.0,-1000.0,-1000.0,-1000.0,-1000.0,-1000.0,-1000.0,-1000.0,-1000.0,-1000.0,-1000.0,-1000.0,-1000.0,-1000.0,-1000.0,-1000.0,-1000.0,-1000.0,-1000.0,-1000.0,-1000.0,-1000.0,-1000.0,-1000.0,-1000.0,-1000.0,-1000.0,-1000.0,-1000.0,-1000.0,-1000.0,-1000.0,-1000.0,-1000.0,-1000.0,-1000.0,-1000.0,-1000.0,2.0,3.0,yes,180.0,240.0,16229194.0,even,asymm,16228644.0,307.0,307.0,lower,-206.0,-7.0,180.0,-49.2380396484,0.0,-206.0,right,hammer,object,10.0,-180.4,-10.0,-180.4,-0.0606060606061,-0.312195121951,-10.0,180.4,0.0388647265624,39.4,-212.5,-39.4,-212.5,-0.238787878788,0.0792682926829,-39.4,212.5,-0.139317091619,-1000.0,-1000.0,-1000.0,-1000.0,-1000.0,-1000.0,-1000.0,-1000.0,-1000.0,-1000.0,-1000.0,-1000.0,-1000.0,-1000.0,-1000.0,-1000.0,-1000.0,-1000.0,-1000.0,-1000.0,-1000.0,-1000.0,-1000.0,-1000.0,-1000.0,-1000.0,-1000.0,165.0,82.0,-16.4126798828,-0.482725878906,-0.0994707871685,object_hammer.png,294.0,779.0,0.0,0.0,0.0
