RT,accuracy,aff_lum,block_count,cat,catch_trial,comp,correct_response,cutoff_warning_msg,dev_for_warning,endX,file,fillFix,gap,handle_side,jitter_dur,large_fix_col,large_fix_size,latin_square_letter,mask_side,max_dev_fix,max_dev_object,max_samples,min_samples_fix,min_samples_object,object,outlier,picture_name,rep,response_hand,saccLat,scale,scale_item,scaled_height,scaled_width,subject_parity,symm,trialId,trial_count,visual_field,y_stim
390.04894964,0,opposite,0,garage,no,incompatible,z,85,150,-10.6,L3.asc,no,overlap,right,632.855639041,change,32,F,right,50,50,4000,50,20,hammer,0,asymm_garage_hammer,1,left,138,3,yes,180,240,even,asymm,0,0,lower,-319
455.86004421,1,opposite,0,kitchen,no,compatible,slash,85,150,-19.1,L3.asc,no,overlap,right,555.271193972,no_change,32,F,right,50,50,4000,50,20,roller,0,symm_kitchen_roller,1,right,109,3,yes,180,240,even,symm,1,1,lower,-254
418.043593329,1,control,0,kitchen,no,incompatible,slash,85,150,-4.7,L3.asc,no,zero,left,527.96383307,no_change,32,E,control,50,50,4000,50,20,spoon2,0,asymm_kitchen_spoon2,1,right,161,3,yes,180,240,even,asymm,2,2,lower,-252
774.987663343,1,overlap,0,garage,no,incompatible,z,85,150,-14.1,L3.asc,no,zero,right,457.045698698,change,32,A,left,50,50,4000,50,20,mallet,0,asymm_garage_mallet,1,left,102,3,yes,180,240,even,asymm,3,3,upper,314
645.337742289,1,control,0,garage,no,incompatible,z,85,150,-10.3,L3.asc,no,overlap,right,494.998493327,no_change,32,C,control,50,50,4000,50,20,paintbrush,0,asymm_garage_paintbrush,1,left,137,3,yes,180,240,even,asymm,4,4,lower,-254
739.701261635,1,opposite,0,garage,no,compatible,z,85,150,28.9,L3.asc,no,zero,left,694.181989108,no_change,32,B,left,50,50,4000,50,20,wrench,0,asymm_garage_wrench,1,left,134,3,yes,180,240,even,asymm,5,5,lower,-290
502.879141667,1,control,0,kitchen,no,compatible,slash,85,150,2.5,L3.asc,no,overlap,right,478.835613059,no_change,32,C,control,50,50,4000,50,20,sharpeningsteel,0,asymm_kitchen_sharpeningsteel,1,right,158,3,yes,180,240,even,asymm,6,6,upper,272
1092.19043924,1,opposite,0,kitchen,no,incompatible,slash,85,150,59.1,L3.asc,no,overlap,left,475.419847234,change,32,B,left,50,50,4000,50,20,carrot,0,symm_kitchen_carrot,1,right,185,3,yes,180,240,even,symm,7,7,lower,-321
513.610234433,1,overlap,0,garage,no,incompatible,z,85,150,14.9,L3.asc,no,overlap,right,647.702351901,no_change,32,A,left,50,50,4000,50,20,chisel2,0,asymm_garage_chisel2,1,left,143,3,yes,180,240,even,asymm,8,8,upper,260
892.496257199,1,overlap,0,kitchen,no,compatible,slash,85,150,0.4,L3.asc,no,zero,right,301.360906443,no_change,32,A,left,50,50,4000,50,20,fork,0,asymm_kitchen_fork,1,right,174,3,yes,180,240,even,asymm,9,9,upper,333
411.292314402,1,overlap,0,kitchen,no,incompatible,slash,85,150,7.6,L3.asc,no,overlap,left,373.956895792,change,32,D,right,50,50,4000,50,20,washingbrush,0,asymm_kitchen_washingbrush,1,right,156,3,yes,180,240,even,asymm,10,10,upper,330
465.250958632,1,overlap,0,garage,no,compatible,z,85,150,-0.5,L3.asc,no,overlap,left,469.821338828,change,32,D,right,50,50,4000,50,20,ruler,0,symm_garage_ruler,1,left,162,3,yes,180,240,even,symm,11,11,lower,-321
912.826113893,0,control,0,garage,no,incompatible,z,85,150,-2.6,L3.asc,no,overlap,right,645.384073086,no_change,32,C,control,50,50,4000,50,20,chisel,0,asymm_garage_chisel,1,left,137,3,yes,180,240,even,asymm,12,12,upper,331
1300.41759071,1,control,0,kitchen,no,incompatible,slash,85,150,1.2,L3.asc,no,overlap,left,557.713677836,change,32,E,control,50,50,4000,50,20,peeler,0,asymm_kitchen_peeler,1,right,161,3,yes,180,240,even,asymm,13,13,upper,269
476.321685388,1,overlap,0,garage,no,incompatible,z,85,150,30.7,L3.asc,no,zero,right,479.038393593,no_change,32,A,left,50,50,4000,50,20,hammer,0,asymm_garage_hammer,2,left,138,3,yes,180,240,even,asymm,14,14,lower,-321
1066.03625509,1,control,0,kitchen,no,incompatible,slash,85,150,2.6,L3.asc,no,zero,left,532.011326535,change,32,E,control,50,50,4000,50,20,spoon,0,asymm_kitchen_spoon,1,right,118,3,yes,180,240,even,asymm,15,15,upper,256
474.107041999,1,opposite,0,kitchen,no,compatible,slash,85,150,7.3,L3.asc,no,zero,right,546.163513478,no_change,32,F,right,50,50,4000,50,20,spoon2,0,asymm_kitchen_spoon2,2,right,123,3,yes,180,240,even,asymm,16,16,lower,-315
551.805509692,1,opposite,0,garage,no,incompatible,z,85,150,0.6,L3.asc,no,zero,right,395.803198436,no_change,32,F,right,50,50,4000,50,20,leveller,0,symm_garage_leveller,1,left,140,3,yes,180,240,even,symm,17,17,lower,-314
881.426995083,1,opposite,0,garage,no,compatible,z,85,150,-10.0,L3.asc,no,overlap,left,426.963999227,no_change,32,B,left,50,50,4000,50,20,screwdriver,0,asymm_garage_screwdriver,1,left,148,3,yes,180,240,even,asymm,18,18,upper,293
481.014953159,1,overlap,0,garage,no,compatible,z,85,150,-6.7,L3.asc,no,zero,left,503.818105307,no_change,32,D,right,50,50,4000,50,20,paintbrush,0,asymm_garage_paintbrush,2,left,121,3,yes,180,240,even,asymm,19,19,upper,300
557.675442475,1,overlap,0,kitchen,no,incompatible,slash,85,150,-24.4,L3.asc,no,overlap,left,498.490189643,change,32,D,right,50,50,4000,50,20,knife,0,asymm_kitchen_knife,1,right,136,3,yes,180,240,even,asymm,20,20,lower,-265
494.408781823,1,control,0,kitchen,no,compatible,slash,85,150,0.3,L3.asc,no,zero,right,734.311835396,change,32,C,control,50,50,4000,50,20,carrot,0,symm_kitchen_carrot,2,right,110,3,yes,180,240,even,symm,21,21,upper,334
488.902344326,1,overlap,0,kitchen,no,compatible,slash,85,150,29.8,L3.asc,no,zero,right,473.499987496,change,32,A,left,50,50,4000,50,20,roller,0,symm_kitchen_roller,2,right,136,3,yes,180,240,even,symm,22,22,lower,-313
665.176932678,1,opposite,0,garage,no,compatible,z,85,150,41.2,L3.asc,no,overlap,left,457.686477268,no_change,32,B,left,50,50,4000,50,20,mallet,0,asymm_garage_mallet,2,left,145,3,yes,180,240,even,asymm,23,23,lower,-287
601.503520248,1,control,0,garage,no,incompatible,z,85,150,-11.6,L3.asc,no,zero,right,366.199347678,no_change,32,C,control,50,50,4000,50,20,wrench,0,asymm_garage_wrench,2,left,142,3,yes,180,240,even,asymm,24,24,upper,320
464.073346266,1,opposite,0,garage,no,compatible,z,85,150,43.6,L3.asc,no,zero,left,395.49045866,no_change,32,B,left,50,50,4000,50,20,chisel2,0,asymm_garage_chisel2,2,left,171,3,yes,180,240,even,asymm,25,25,lower,-260
643.578544683,1,control,0,garage,no,compatible,z,85,150,-4.3,L3.asc,no,zero,left,500.113743647,change,32,E,control,50,50,4000,50,20,ruler,0,symm_garage_ruler,2,left,136,3,yes,180,240,even,symm,26,26,upper,299
388.982409287,1,opposite,0,kitchen,no,incompatible,slash,85,150,20.6,L3.asc,no,zero,left,415.290709189,change,32,B,left,50,50,4000,50,20,fork,0,asymm_kitchen_fork,2,right,140,3,yes,180,240,even,asymm,27,27,lower,-314
388.982409287,1,None,0,None,yes,None,None,85,150,-1000.0,L3.asc,no,overlap,None,297.938107824,no_change,32,None,None,50,50,4000,50,20,None,0,catch_trial,0,None,-1,3,yes,180,240,even,catch,28,28,None,311
1298.78402731,1,overlap,0,kitchen,no,incompatible,slash,85,150,-8.0,L3.asc,no,zero,left,497.040429037,no_change,32,D,right,50,50,4000,50,20,sharpeningsteel,0,asymm_kitchen_sharpeningsteel,2,right,129,3,yes,180,240,even,asymm,29,29,upper,281
619.022721463,1,control,0,kitchen,no,incompatible,slash,85,150,21.9,L3.asc,no,overlap,left,742.053660771,no_change,32,E,control,50,50,4000,50,20,washingbrush,0,asymm_kitchen_washingbrush,2,right,246,3,yes,180,240,even,asymm,30,30,upper,279
573.870206463,1,overlap,0,kitchen,no,compatible,slash,85,150,21.5,L3.asc,no,overlap,right,625.768592579,no_change,32,A,left,50,50,4000,50,20,spoon2,0,asymm_kitchen_spoon2,3,right,159,3,yes,180,240,even,asymm,31,31,lower,-301
458.538506188,1,opposite,0,kitchen,no,compatible,slash,85,150,-4.5,L3.asc,no,zero,right,547.248958788,change,32,F,right,50,50,4000,50,20,spoon,0,asymm_kitchen_spoon,2,right,157,3,yes,180,240,even,asymm,32,32,lower,-327
507.352223275,1,control,0,garage,no,incompatible,z,85,150,18.2,L3.asc,no,overlap,right,523.160224075,no_change,32,C,control,50,50,4000,50,20,screwdriver,0,asymm_garage_screwdriver,2,left,163,3,yes,180,240,even,asymm,33,33,upper,262
465.131889746,0,overlap,0,garage,no,incompatible,z,85,150,6.0,L3.asc,no,zero,right,491.796937469,no_change,32,A,left,50,50,4000,50,20,leveller,0,symm_garage_leveller,2,left,114,3,yes,180,240,even,symm,34,34,upper,281
603.85292552,0,overlap,0,garage,no,compatible,z,85,150,5.3,L3.asc,no,overlap,left,435.590343574,no_change,32,D,right,50,50,4000,50,20,chisel,0,asymm_garage_chisel,2,left,179,3,yes,180,240,even,asymm,35,35,lower,-313
538.416754635,1,opposite,0,kitchen,no,compatible,slash,85,150,12.3,L3.asc,no,overlap,right,447.565427044,change,32,F,right,50,50,4000,50,20,peeler,0,asymm_kitchen_peeler,2,right,134,3,yes,180,240,even,asymm,36,36,lower,-267
470.864645645,1,opposite,0,garage,no,compatible,z,85,150,14.3,L3.asc,no,zero,left,684.355843661,no_change,32,B,left,50,50,4000,50,20,hammer,0,asymm_garage_hammer,3,left,114,3,yes,180,240,even,asymm,37,37,upper,296
489.118948587,0,control,0,garage,no,incompatible,z,85,150,-7.1,L3.asc,no,zero,right,555.991722736,change,32,C,control,50,50,4000,50,20,mallet,0,asymm_garage_mallet,3,left,124,3,yes,180,240,even,asymm,38,38,upper,326
718.895177516,1,overlap,0,garage,no,compatible,z,85,150,12.9,L3.asc,no,overlap,left,637.843661007,no_change,32,D,right,50,50,4000,50,20,wrench,0,asymm_garage_wrench,3,left,156,3,yes,180,240,even,asymm,39,39,lower,-322
633.086305469,0,overlap,0,kitchen,no,incompatible,slash,85,150,-13.0,L3.asc,no,zero,left,506.690222375,change,32,D,right,50,50,4000,50,20,carrot,0,symm_kitchen_carrot,3,right,120,3,yes,180,240,even,symm,40,40,upper,259
882.16723959,1,control,0,garage,no,incompatible,z,85,150,9.7,L3.asc,no,zero,right,468.399662562,change,32,C,control,50,50,4000,50,20,chisel2,0,asymm_garage_chisel2,3,left,140,3,yes,180,240,even,asymm,41,41,upper,314
1293.70978181,1,control,0,garage,no,compatible,z,85,150,19.9,L3.asc,no,zero,left,417.47828727,no_change,32,E,control,50,50,4000,50,20,paintbrush,0,asymm_garage_paintbrush,3,left,151,3,yes,180,240,even,asymm,42,42,upper,307
1293.70978181,1,None,0,None,yes,None,None,85,150,-1000.0,L3.asc,no,overlap,None,469.807936635,no_change,32,None,None,50,50,4000,50,20,None,0,catch_trial,0,None,-1,3,yes,180,240,even,catch,43,43,None,278
737.258260778,0,control,0,kitchen,no,incompatible,slash,85,150,-9.2,L3.asc,no,overlap,left,273.786981508,no_change,32,E,control,50,50,4000,50,20,knife,0,asymm_kitchen_knife,2,right,203,3,yes,180,240,even,asymm,44,44,upper,280
3000.10784199,0,opposite,0,kitchen,no,compatible,slash,85,150,-13.7,L3.asc,no,zero,right,441.060579807,change,32,F,right,50,50,4000,50,20,washingbrush,0,asymm_kitchen_washingbrush,3,right,142,3,yes,180,240,even,asymm,45,45,upper,259
426.455069849,1,opposite,0,kitchen,no,incompatible,slash,85,150,26.8,L3.asc,no,overlap,left,740.10551143,no_change,32,B,left,50,50,4000,50,20,roller,0,symm_kitchen_roller,3,right,2029,3,yes,180,240,even,symm,46,46,upper,300
426.455069849,1,None,0,None,yes,None,None,85,150,-1000.0,L3.asc,no,overlap,None,379.509358413,change,32,None,None,50,50,4000,50,20,None,0,catch_trial,0,None,-1,3,yes,180,240,even,catch,47,47,None,319
928.765290747,1,opposite,0,kitchen,no,incompatible,slash,85,150,39.7,L3.asc,no,overlap,left,512.487435907,no_change,32,B,left,50,50,4000,50,20,spoon2,0,asymm_kitchen_spoon2,4,right,206,3,yes,180,240,even,asymm,48,48,lower,-257
488.590487361,1,overlap,0,garage,no,compatible,z,85,150,-11.9,L3.asc,no,overlap,left,309.344348787,no_change,32,D,right,50,50,4000,50,20,screwdriver,0,asymm_garage_screwdriver,3,left,166,3,yes,180,240,even,asymm,49,49,upper,304
1108.1041458,1,opposite,0,garage,no,compatible,z,85,150,14.2,L3.asc,no,zero,left,344.803846593,no_change,32,B,left,50,50,4000,50,20,leveller,0,symm_garage_leveller,3,left,108,3,yes,180,240,even,symm,50,50,upper,302
583.456149532,1,opposite,0,garage,no,incompatible,z,85,150,9.1,L3.asc,no,overlap,right,449.954499395,change,32,F,right,50,50,4000,50,20,ruler,0,symm_garage_ruler,3,left,178,3,yes,180,240,even,symm,51,51,lower,-287
467.543423407,1,control,0,kitchen,no,compatible,slash,85,150,12.0,L3.asc,no,zero,right,657.619380194,change,32,C,control,50,50,4000,50,20,fork,0,asymm_kitchen_fork,3,right,129,3,yes,180,240,even,asymm,52,52,lower,-258
570.240982842,1,control,0,kitchen,no,incompatible,slash,85,150,-0.1,L3.asc,no,zero,left,407.098916664,no_change,32,E,control,50,50,4000,50,20,sharpeningsteel,0,asymm_kitchen_sharpeningsteel,3,right,154,3,yes,180,240,even,asymm,53,53,lower,-254
656.394367002,1,overlap,0,garage,no,compatible,z,85,150,49.5,L3.asc,no,overlap,left,489.334581129,no_change,32,D,right,50,50,4000,50,20,mallet,0,asymm_garage_mallet,4,left,143,3,yes,180,240,even,asymm,54,54,lower,-252
997.803837536,1,control,0,garage,no,compatible,z,85,150,18.0,L3.asc,no,overlap,left,504.946660287,no_change,32,E,control,50,50,4000,50,20,chisel,0,asymm_garage_chisel,3,left,151,3,yes,180,240,even,asymm,55,55,lower,-260
948.784848348,1,overlap,0,kitchen,no,compatible,slash,85,150,38.9,L3.asc,no,zero,right,587.330037791,no_change,32,A,left,50,50,4000,50,20,spoon,0,asymm_kitchen_spoon,3,right,131,3,yes,180,240,even,asymm,56,56,lower,-292
704.223518443,0,overlap,0,garage,no,compatible,z,85,150,15.9,L3.asc,no,zero,left,551.716211595,change,32,D,right,50,50,4000,50,20,chisel2,0,asymm_garage_chisel2,4,left,138,3,yes,180,240,even,asymm,57,57,lower,-296
745.613497541,1,opposite,0,garage,no,incompatible,z,85,150,-12.1,L3.asc,no,overlap,right,541.353277682,no_change,32,F,right,50,50,4000,50,20,paintbrush,0,asymm_garage_paintbrush,4,left,152,3,yes,180,240,even,asymm,58,58,upper,261
452.51579074,1,opposite,0,kitchen,no,compatible,slash,85,150,-11.9,L3.asc,no,overlap,right,367.728513471,change,32,F,right,50,50,4000,50,20,knife,0,asymm_kitchen_knife,3,right,183,3,yes,180,240,even,asymm,59,59,upper,294
546.863553931,0,overlap,0,kitchen,no,compatible,slash,85,150,32.6,L3.asc,no,zero,right,433.006105898,no_change,32,A,left,50,50,4000,50,20,peeler,0,asymm_kitchen_peeler,3,right,126,3,yes,180,240,even,asymm,60,60,lower,-334
1687.61139231,0,control,0,garage,no,incompatible,z,85,150,9.4,L3.asc,no,overlap,right,395.383002466,change,32,C,control,50,50,4000,50,20,hammer,0,asymm_garage_hammer,4,left,123,3,yes,180,240,even,asymm,61,61,upper,256
950.917847852,1,control,0,kitchen,no,compatible,slash,85,150,-0.7,L3.asc,no,zero,right,371.522797949,no_change,32,C,control,50,50,4000,50,20,roller,0,symm_kitchen_roller,4,right,119,3,yes,180,240,even,symm,62,62,upper,318
950.917847852,1,None,0,None,yes,None,None,85,150,-1000.0,L3.asc,no,overlap,None,498.346972213,change,32,None,None,50,50,4000,50,20,None,0,catch_trial,0,None,-1,3,yes,180,240,even,catch,63,63,None,292
658.727874769,1,control,0,garage,no,compatible,z,85,150,44.2,L3.asc,no,zero,left,593.903007032,no_change,32,E,control,50,50,4000,50,20,wrench,0,asymm_garage_wrench,4,left,152,3,yes,180,240,even,asymm,64,64,lower,-260
505.7897385,1,control,0,kitchen,no,incompatible,slash,85,150,33.3,L3.asc,no,zero,left,487.279057018,no_change,32,E,control,50,50,4000,50,20,carrot,0,symm_kitchen_carrot,4,right,135,3,yes,180,240,even,symm,65,65,lower,-319
548.003311229,1,control,0,garage,no,incompatible,z,85,150,20.7,L3.asc,no,overlap,right,374.599453996,no_change,32,C,control,50,50,4000,50,20,leveller,0,symm_garage_leveller,4,left,156,3,yes,180,240,even,symm,66,66,lower,-312
360.85631795,0,overlap,0,kitchen,no,compatible,slash,85,150,3.6,L3.asc,no,overlap,right,465.608146315,no_change,32,A,left,50,50,4000,50,20,washingbrush,0,asymm_kitchen_washingbrush,4,right,186,3,yes,180,240,even,asymm,67,67,upper,256
1057.15413302,1,control,0,garage,no,compatible,z,85,150,-6.9,L3.asc,no,zero,left,441.827924429,no_change,32,E,control,50,50,4000,50,20,screwdriver,0,asymm_garage_screwdriver,4,left,114,3,yes,180,240,even,asymm,68,68,upper,298
1057.15413302,1,None,0,None,yes,None,None,85,150,-1000.0,L3.asc,no,overlap,None,556.223475134,no_change,32,None,None,50,50,4000,50,20,None,0,catch_trial,0,None,-1,3,yes,180,240,even,catch,69,69,None,329
607.148463933,1,opposite,0,kitchen,no,compatible,slash,85,150,50.5,L3.asc,no,overlap,right,577.405624604,no_change,32,F,right,50,50,4000,50,20,sharpeningsteel,0,asymm_kitchen_sharpeningsteel,4,right,238,3,yes,180,240,even,asymm,70,70,lower,-269
602.652333048,1,control,0,garage,no,compatible,z,85,150,32.8,L3.asc,no,zero,left,598.763858344,change,32,E,control,50,50,4000,50,20,mallet,0,asymm_garage_mallet,5,left,138,3,yes,180,240,even,asymm,71,71,upper,320
797.203449572,0,control,0,kitchen,no,compatible,slash,85,150,4.7,L3.asc,no,overlap,right,642.526815191,change,32,C,control,50,50,4000,50,20,spoon2,0,asymm_kitchen_spoon2,5,right,206,3,yes,180,240,even,asymm,72,72,upper,254
797.203449572,0,None,0,None,yes,None,None,85,150,-1000.0,L3.asc,no,overlap,None,461.316365615,change,32,None,None,50,50,4000,50,20,None,0,catch_trial,0,None,-1,3,yes,180,240,even,catch,73,73,None,329
797.203449572,0,None,0,None,yes,None,None,85,150,-1000.0,L3.asc,no,overlap,None,569.632310595,change,32,None,None,50,50,4000,50,20,None,0,catch_trial,0,None,-1,3,yes,180,240,even,catch,74,74,None,296
877.509799853,1,control,0,garage,no,compatible,z,85,150,25.4,L3.asc,no,overlap,left,643.512955854,no_change,32,E,control,50,50,4000,50,20,chisel2,0,asymm_garage_chisel2,5,left,217,3,yes,180,240,even,asymm,75,75,upper,305
340.05490143,1,opposite,0,kitchen,no,incompatible,slash,85,150,65.3,L3.asc,no,overlap,left,513.874839681,no_change,32,B,left,50,50,4000,50,20,spoon,0,asymm_kitchen_spoon,4,right,210,3,yes,180,240,even,asymm,76,76,lower,-332
430.61790349,1,overlap,0,garage,no,incompatible,z,85,150,47.4,L3.asc,no,overlap,right,337.829959453,no_change,32,A,left,50,50,4000,50,20,ruler,0,symm_garage_ruler,4,left,158,3,yes,180,240,even,symm,77,77,lower,-311
452.941534714,1,overlap,0,kitchen,no,incompatible,slash,85,150,15.9,L3.asc,no,zero,left,491.493686508,change,32,D,right,50,50,4000,50,20,fork,0,asymm_kitchen_fork,4,right,128,3,yes,180,240,even,asymm,78,78,upper,273
651.413341152,1,opposite,0,kitchen,no,incompatible,slash,85,150,44.7,L3.asc,no,overlap,left,458.8944157,change,32,B,left,50,50,4000,50,20,peeler,0,asymm_kitchen_peeler,4,right,142,3,yes,180,240,even,asymm,79,79,lower,-306
651.413341152,1,None,0,None,yes,None,None,85,150,-1000.0,L3.asc,no,overlap,None,595.750950698,no_change,32,None,None,50,50,4000,50,20,None,0,catch_trial,0,None,-1,3,yes,180,240,even,catch,80,80,None,288
448.820339544,1,overlap,0,kitchen,no,incompatible,slash,85,150,37.3,L3.asc,no,overlap,left,544.82824585,change,32,D,right,50,50,4000,50,20,roller,0,symm_kitchen_roller,5,right,208,3,yes,180,240,even,symm,81,81,lower,-332
708.429834137,1,opposite,0,garage,no,incompatible,z,85,150,37.6,L3.asc,no,zero,right,456.955816651,no_change,32,F,right,50,50,4000,50,20,chisel,0,asymm_garage_chisel,4,left,146,3,yes,180,240,even,asymm,82,82,lower,-264
573.20057142,1,opposite,0,kitchen,no,compatible,slash,85,150,33.9,L3.asc,no,zero,right,420.161501916,no_change,32,F,right,50,50,4000,50,20,carrot,0,symm_kitchen_carrot,5,right,151,3,yes,180,240,even,symm,83,83,lower,-262
283.711742681,1,overlap,0,garage,no,compatible,z,85,150,39.0,L3.asc,no,overlap,left,378.882387799,no_change,32,D,right,50,50,4000,50,20,leveller,0,symm_garage_leveller,5,left,125,3,yes,180,240,even,symm,84,84,lower,-307
804.171783883,1,overlap,0,garage,no,incompatible,z,85,150,22.2,L3.asc,no,overlap,right,523.136542887,no_change,32,A,left,50,50,4000,50,20,paintbrush,0,asymm_garage_paintbrush,5,left,185,3,yes,180,240,even,asymm,85,85,upper,276
395.839103171,1,overlap,0,kitchen,no,compatible,slash,85,150,32.9,L3.asc,no,zero,right,576.801305822,change,32,A,left,50,50,4000,50,20,knife,0,asymm_kitchen_knife,4,right,121,3,yes,180,240,even,asymm,86,86,upper,264
473.682191245,1,opposite,0,kitchen,no,incompatible,slash,85,150,22.3,L3.asc,no,overlap,left,430.356549032,no_change,32,B,left,50,50,4000,50,20,washingbrush,0,asymm_kitchen_washingbrush,5,right,129,3,yes,180,240,even,asymm,87,87,upper,267
392.71004045,1,overlap,0,garage,no,compatible,z,85,150,59.4,L3.asc,no,zero,left,672.243800785,change,32,D,right,50,50,4000,50,20,hammer,0,asymm_garage_hammer,5,left,150,3,yes,180,240,even,asymm,88,88,lower,-256
447.98858363,1,opposite,0,garage,no,incompatible,z,85,150,42.7,L3.asc,no,overlap,right,455.74721747,no_change,32,F,right,50,50,4000,50,20,screwdriver,0,asymm_garage_screwdriver,5,left,139,3,yes,180,240,even,asymm,89,89,lower,-306
959.177895069,1,opposite,0,garage,no,incompatible,z,85,150,-4.9,L3.asc,no,zero,right,681.204291849,change,32,F,right,50,50,4000,50,20,wrench,0,asymm_garage_wrench,5,left,124,3,yes,180,240,even,asymm,90,90,upper,298
843.708626938,0,overlap,0,kitchen,no,compatible,slash,85,150,72.2,L3.asc,no,zero,right,549.814377831,change,32,A,left,50,50,4000,50,20,sharpeningsteel,0,asymm_kitchen_sharpeningsteel,5,right,134,3,yes,180,240,even,asymm,91,91,lower,-327
723.71862378,0,overlap,0,kitchen,no,incompatible,slash,85,150,36.0,L3.asc,no,zero,left,490.259163187,no_change,32,D,right,50,50,4000,50,20,spoon2,0,asymm_kitchen_spoon2,6,right,135,3,yes,180,240,even,asymm,92,92,lower,-282
568.834056631,1,opposite,0,garage,no,incompatible,z,85,150,13.4,L3.asc,no,overlap,right,575.68330033,no_change,32,F,right,50,50,4000,50,20,mallet,0,asymm_garage_mallet,6,left,144,3,yes,180,240,even,asymm,93,93,upper,327
635.961829146,1,control,0,kitchen,no,compatible,slash,85,150,21.0,L3.asc,no,overlap,right,363.828417165,change,32,C,control,50,50,4000,50,20,spoon,0,asymm_kitchen_spoon,5,right,167,3,yes,180,240,even,asymm,94,94,lower,-258
352.987275379,1,control,0,kitchen,no,incompatible,slash,85,150,40.2,L3.asc,no,overlap,left,429.371828009,change,32,E,control,50,50,4000,50,20,roller,0,symm_kitchen_roller,6,right,167,3,yes,180,240,even,symm,95,95,lower,-312
242.101664637,1,control,0,kitchen,no,compatible,slash,85,150,32.3,L3.asc,no,overlap,right,433.740281575,change,32,C,control,50,50,4000,50,20,peeler,0,asymm_kitchen_peeler,5,right,957,3,yes,180,240,even,asymm,96,96,upper,268
456.149068435,1,opposite,0,garage,no,compatible,z,85,150,5.7,L3.asc,no,overlap,left,531.915523314,no_change,32,B,left,50,50,4000,50,20,ruler,0,symm_garage_ruler,5,left,137,3,yes,180,240,even,symm,97,97,upper,313
419.670582397,0,opposite,0,garage,no,incompatible,z,85,150,14.1,L3.asc,no,overlap,right,484.312354031,no_change,32,F,right,50,50,4000,50,20,chisel2,0,asymm_garage_chisel2,6,left,146,3,yes,180,240,even,asymm,98,98,upper,323
1001.14174824,1,overlap,0,garage,no,incompatible,z,85,150,56.3,L3.asc,no,overlap,right,618.507061263,no_change,32,A,left,50,50,4000,50,20,chisel,0,asymm_garage_chisel,5,left,146,3,yes,180,240,even,asymm,99,99,lower,-276
633.166021564,1,opposite,0,kitchen,no,incompatible,slash,85,150,33.3,L3.asc,no,overlap,left,588.665041503,change,32,B,left,50,50,4000,50,20,knife,0,asymm_kitchen_knife,5,right,154,3,yes,180,240,even,asymm,100,100,upper,309
314.049370686,1,control,0,kitchen,no,incompatible,slash,85,150,56.4,L3.asc,no,zero,left,302.678999368,change,32,E,control,50,50,4000,50,20,fork,0,asymm_kitchen_fork,5,right,145,3,yes,180,240,even,asymm,101,101,lower,-255
295.616342611,1,control,0,kitchen,no,compatible,slash,85,150,20.5,L3.asc,no,zero,right,607.392284814,no_change,32,C,control,50,50,4000,50,20,washingbrush,0,asymm_kitchen_washingbrush,6,right,148,3,yes,180,240,even,asymm,102,102,upper,292
451.054979624,1,overlap,0,garage,no,incompatible,z,85,150,50.9,L3.asc,no,zero,right,419.237280901,change,32,A,left,50,50,4000,50,20,screwdriver,0,asymm_garage_screwdriver,6,left,113,3,yes,180,240,even,asymm,103,103,upper,313
478.416589224,0,overlap,0,garage,no,incompatible,z,85,150,37.0,L3.asc,no,zero,right,229.582988799,no_change,32,A,left,50,50,4000,50,20,wrench,0,asymm_garage_wrench,6,left,172,3,yes,180,240,even,asymm,104,104,lower,-280
488.007684095,0,overlap,0,kitchen,no,compatible,slash,85,150,53.9,L3.asc,no,zero,right,560.297834224,change,32,A,left,50,50,4000,50,20,carrot,0,symm_kitchen_carrot,6,right,142,3,yes,180,240,even,symm,105,105,lower,-321
1096.24651058,1,control,0,garage,no,compatible,z,85,150,16.5,L3.asc,no,zero,left,537.113653087,change,32,E,control,50,50,4000,50,20,leveller,0,symm_garage_leveller,6,left,115,3,yes,180,240,even,symm,106,106,upper,258
384.506726215,0,opposite,0,garage,no,compatible,z,85,150,60.4,L3.asc,no,zero,left,571.67171532,no_change,32,B,left,50,50,4000,50,20,paintbrush,0,asymm_garage_paintbrush,6,left,125,3,yes,180,240,even,asymm,107,107,lower,-254
765.69933986,0,overlap,0,kitchen,no,incompatible,slash,85,150,21.9,L3.asc,no,zero,left,515.921358727,change,32,D,right,50,50,4000,50,20,spoon,0,asymm_kitchen_spoon,6,right,136,3,yes,180,240,even,asymm,108,108,upper,277
568.086067879,1,control,0,garage,no,compatible,z,85,150,49.3,L3.asc,no,zero,left,563.253650159,no_change,32,E,control,50,50,4000,50,20,hammer,0,asymm_garage_hammer,6,left,124,3,yes,180,240,even,asymm,109,109,lower,-302
428.081243891,1,overlap,0,kitchen,no,incompatible,slash,85,150,14.2,L3.asc,no,overlap,left,451.956834411,change,32,D,right,50,50,4000,50,20,peeler,0,asymm_kitchen_peeler,6,right,158,3,yes,180,240,even,asymm,110,110,upper,265
456.58604833,1,control,0,garage,no,incompatible,z,85,150,20.4,L3.asc,no,overlap,right,354.628149496,no_change,32,C,control,50,50,4000,50,20,ruler,0,symm_garage_ruler,6,left,149,3,yes,180,240,even,symm,111,111,upper,264
637.036817491,1,opposite,0,kitchen,no,incompatible,slash,85,150,38.3,L3.asc,no,overlap,left,454.697481772,change,32,B,left,50,50,4000,50,20,sharpeningsteel,0,asymm_kitchen_sharpeningsteel,6,right,161,3,yes,180,240,even,asymm,112,112,lower,-321
622.507057037,1,opposite,0,garage,no,compatible,z,85,150,31.5,L3.asc,no,overlap,left,370.91223638,no_change,32,B,left,50,50,4000,50,20,chisel,0,asymm_garage_chisel,6,left,149,3,yes,180,240,even,asymm,113,113,lower,-306
788.458796108,1,control,0,kitchen,no,compatible,slash,85,150,21.1,L3.asc,no,zero,right,515.544671146,no_change,32,C,control,50,50,4000,50,20,knife,0,asymm_kitchen_knife,6,right,119,3,yes,180,240,even,asymm,114,114,upper,304
379.623313935,1,opposite,0,kitchen,no,compatible,slash,85,150,7.4,L3.asc,no,zero,right,483.306025385,no_change,32,F,right,50,50,4000,50,20,fork,0,asymm_kitchen_fork,6,right,142,3,yes,180,240,even,asymm,115,115,upper,258
448.849379708,0,overlap,0,garage,no,incompatible,slash,85,150,-21.5,sm2.asc,no,zero,left,538.804353303,no_change,32,F,right,50,50,4000,50,20,hammer,0,asymm_garage_hammer,1,right,182,3,yes,180,240,even,asymm,116,0,lower,-285
1927.14323995,0,control,0,kitchen,no,compatible,z,85,150,-13.5,sm2.asc,no,zero,left,387.264211606,change,32,E,control,50,50,4000,50,20,roller,0,symm_kitchen_roller,1,left,169,3,yes,180,240,even,symm,117,1,lower,-276
632.448724079,0,control,0,kitchen,no,incompatible,z,85,150,-17.4,sm2.asc,no,zero,right,413.900927375,change,32,A,control,50,50,4000,50,20,spoon2,0,asymm_kitchen_spoon2,1,left,129,3,yes,180,240,even,asymm,118,2,upper,303
484.201936813,0,control,0,garage,no,incompatible,slash,85,150,1.2,sm2.asc,no,zero,left,428.081804253,change,32,E,control,50,50,4000,50,20,mallet,0,asymm_garage_mallet,1,right,116,3,yes,180,240,even,asymm,119,3,upper,307
736.154051819,1,opposite,0,garage,no,compatible,slash,85,150,-44.7,sm2.asc,no,zero,right,539.202069913,no_change,32,B,right,50,50,4000,50,20,paintbrush,0,asymm_garage_paintbrush,1,right,145,3,yes,180,240,even,asymm,120,4,lower,-269
567.269334296,1,overlap,0,garage,no,compatible,slash,85,150,-5.5,sm2.asc,no,overlap,right,524.902256774,no_change,32,D,left,50,50,4000,50,20,wrench,0,asymm_garage_wrench,1,right,140,3,yes,180,240,even,asymm,121,5,upper,250
764.015786229,1,overlap,0,kitchen,no,incompatible,z,85,150,9.1,sm2.asc,no,zero,right,659.782447623,no_change,32,D,left,50,50,4000,50,20,sharpeningsteel,0,asymm_kitchen_sharpeningsteel,1,left,151,3,yes,180,240,even,asymm,122,6,lower,-259
635.047665449,1,overlap,0,kitchen,no,incompatible,z,85,150,0.5,sm2.asc,no,overlap,right,525.874968972,change,32,D,left,50,50,4000,50,20,carrot,0,symm_kitchen_carrot,1,left,137,3,yes,180,240,even,symm,123,7,upper,276
734.003744305,1,opposite,0,garage,no,incompatible,slash,85,150,-0.1,sm2.asc,no,zero,left,295.828393603,change,32,C,left,50,50,4000,50,20,chisel2,0,asymm_garage_chisel2,1,right,208,3,yes,180,240,even,asymm,124,8,lower,-300
571.261211109,1,overlap,0,kitchen,no,compatible,z,85,150,-27.5,sm2.asc,no,zero,left,567.159865812,change,32,F,right,50,50,4000,50,20,fork,0,asymm_kitchen_fork,1,left,162,3,yes,180,240,even,asymm,125,9,lower,-267
536.096897791,1,opposite,0,kitchen,no,incompatible,z,85,150,-38.2,sm2.asc,no,zero,right,634.602143369,no_change,32,B,right,50,50,4000,50,20,washingbrush,0,asymm_kitchen_washingbrush,1,left,129,3,yes,180,240,even,asymm,126,10,upper,328
608.281547646,1,control,0,garage,no,compatible,slash,85,150,-35.7,sm2.asc,no,zero,right,419.503049735,no_change,32,A,control,50,50,4000,50,20,ruler,0,symm_garage_ruler,1,right,183,3,yes,180,240,even,symm,127,11,lower,-313
595.191076826,1,opposite,0,garage,no,incompatible,slash,85,150,-43.0,sm2.asc,no,zero,left,606.645119706,no_change,32,C,left,50,50,4000,50,20,chisel,0,asymm_garage_chisel,1,right,143,3,yes,180,240,even,asymm,128,12,lower,-261
554.782126585,1,control,0,kitchen,no,compatible,z,85,150,-13.2,sm2.asc,no,overlap,left,319.979878479,change,32,E,control,50,50,4000,50,20,peeler,0,asymm_kitchen_peeler,1,left,176,3,yes,180,240,even,asymm,129,13,upper,259
437.676110133,1,control,0,garage,no,compatible,slash,85,150,-21.2,sm2.asc,no,overlap,right,371.508141006,change,32,A,control,50,50,4000,50,20,hammer,0,asymm_garage_hammer,2,right,146,3,yes,180,240,even,asymm,130,14,upper,255
650.323934979,1,control,0,kitchen,no,incompatible,z,85,150,-50.1,sm2.asc,no,zero,right,390.682554934,change,32,A,control,50,50,4000,50,20,spoon,0,asymm_kitchen_spoon,1,left,150,3,yes,180,240,even,asymm,131,15,lower,-253
602.853271379,1,opposite,0,kitchen,no,incompatible,z,85,150,-35.9,sm2.asc,no,zero,right,374.16498262,no_change,32,B,right,50,50,4000,50,20,spoon2,0,asymm_kitchen_spoon2,2,left,153,3,yes,180,240,even,asymm,132,16,upper,333
573.383290477,1,opposite,0,garage,no,incompatible,slash,85,150,-27.7,sm2.asc,no,zero,left,604.313488842,no_change,32,C,left,50,50,4000,50,20,leveller,0,symm_garage_leveller,1,right,136,3,yes,180,240,even,symm,133,17,lower,-256
573.383290477,1,None,0,None,yes,None,None,85,150,-1000.0,sm2.asc,no,overlap,None,493.949725415,change,32,None,None,50,50,4000,50,20,None,0,catch_trial,0,None,-1,3,yes,180,240,even,catch,134,18,None,280
507.354247304,0,overlap,0,garage,no,incompatible,slash,85,150,-65.7,sm2.asc,no,zero,left,523.617287642,change,32,F,right,50,50,4000,50,20,screwdriver,0,asymm_garage_screwdriver,1,right,210,3,yes,180,240,even,asymm,135,19,lower,-330
497.503790921,1,opposite,0,garage,no,incompatible,slash,85,150,-22.8,sm2.asc,no,overlap,left,633.261882298,change,32,C,left,50,50,4000,50,20,paintbrush,0,asymm_garage_paintbrush,2,right,156,3,yes,180,240,even,asymm,136,20,lower,-300
653.002517256,1,opposite,0,kitchen,no,incompatible,z,85,150,-6.3,sm2.asc,no,overlap,right,603.589248083,no_change,32,B,right,50,50,4000,50,20,knife,0,asymm_kitchen_knife,1,left,154,3,yes,180,240,even,asymm,137,21,upper,266
485.062119367,1,control,0,kitchen,no,compatible,z,85,150,-21.1,sm2.asc,no,overlap,left,578.532675038,no_change,32,E,control,50,50,4000,50,20,carrot,0,symm_kitchen_carrot,2,left,158,3,yes,180,240,even,symm,138,22,upper,295
509.075093608,1,overlap,0,kitchen,no,compatible,z,85,150,-31.9,sm2.asc,no,zero,left,572.422913881,change,32,F,right,50,50,4000,50,20,roller,0,symm_kitchen_roller,2,left,130,3,yes,180,240,even,symm,139,23,upper,304
424.317095983,1,overlap,0,garage,no,incompatible,slash,85,150,-28.4,sm2.asc,no,overlap,left,454.17649671,no_change,32,F,right,50,50,4000,50,20,mallet,0,asymm_garage_mallet,2,right,160,3,yes,180,240,even,asymm,140,24,lower,-299
424.317095983,1,None,0,None,yes,None,None,85,150,-1000.0,sm2.asc,no,overlap,None,618.93457062,change,32,None,None,50,50,4000,50,20,None,0,catch_trial,0,None,-1,3,yes,180,240,even,catch,141,25,None,273
609.407377333,1,control,0,garage,no,incompatible,slash,85,150,-18.2,sm2.asc,no,overlap,left,571.828250029,change,32,E,control,50,50,4000,50,20,wrench,0,asymm_garage_wrench,2,right,241,3,yes,180,240,even,asymm,142,26,lower,-285
560.509742711,1,overlap,0,garage,no,compatible,slash,85,150,-15.5,sm2.asc,no,zero,right,623.196473723,no_change,32,D,left,50,50,4000,50,20,chisel2,0,asymm_garage_chisel2,2,right,161,3,yes,180,240,even,asymm,143,27,lower,-266
486.603891671,1,opposite,0,garage,no,compatible,slash,85,150,-42.7,sm2.asc,no,zero,right,594.847718649,no_change,32,B,right,50,50,4000,50,20,ruler,0,symm_garage_ruler,2,right,138,3,yes,180,240,even,symm,144,28,upper,320
470.176216899,1,control,0,kitchen,no,incompatible,z,85,150,-29.2,sm2.asc,no,zero,right,489.588824633,change,32,A,control,50,50,4000,50,20,fork,0,asymm_kitchen_fork,2,left,139,3,yes,180,240,even,asymm,145,29,upper,299
618.20570217,1,control,0,kitchen,no,compatible,z,85,150,-30.5,sm2.asc,no,overlap,left,571.830205031,no_change,32,E,control,50,50,4000,50,20,sharpeningsteel,0,asymm_kitchen_sharpeningsteel,2,left,227,3,yes,180,240,even,asymm,146,30,upper,286
609.426631178,1,opposite,0,kitchen,no,compatible,z,85,150,11.3,sm2.asc,no,overlap,left,641.697405941,change,32,C,left,50,50,4000,50,20,washingbrush,0,asymm_kitchen_washingbrush,2,left,192,3,yes,180,240,even,asymm,147,31,upper,306
384.317604246,0,opposite,0,kitchen,no,compatible,z,85,150,11.3,sm2.asc,no,zero,left,374.778548816,no_change,32,C,left,50,50,4000,50,20,spoon2,0,asymm_kitchen_spoon2,3,left,169,3,yes,180,240,even,asymm,148,32,lower,-328
539.378944678,1,opposite,0,kitchen,no,incompatible,z,85,150,-48.7,sm2.asc,no,zero,right,454.670119531,no_change,32,B,right,50,50,4000,50,20,spoon,0,asymm_kitchen_spoon,2,left,157,3,yes,180,240,even,asymm,149,33,lower,-306
370.613515586,0,control,0,garage,no,compatible,slash,85,150,-6.3,sm2.asc,no,overlap,right,508.536293896,change,32,A,control,50,50,4000,50,20,screwdriver,0,asymm_garage_screwdriver,2,right,134,3,yes,180,240,even,asymm,150,34,upper,330
412.012718606,1,overlap,0,garage,no,compatible,slash,85,150,-7.3,sm2.asc,no,overlap,right,485.501080992,no_change,32,D,left,50,50,4000,50,20,leveller,0,symm_garage_leveller,2,right,202,3,yes,180,240,even,symm,151,35,lower,-316
1089.10090375,1,overlap,0,garage,no,compatible,slash,85,150,12.2,sm2.asc,no,overlap,right,528.027838296,change,32,D,left,50,50,4000,50,20,chisel,0,asymm_garage_chisel,2,right,159,3,yes,180,240,even,asymm,152,36,upper,256
479.666041112,1,overlap,0,kitchen,no,compatible,z,85,150,-30.8,sm2.asc,no,overlap,left,584.161015852,change,32,F,right,50,50,4000,50,20,peeler,0,asymm_kitchen_peeler,2,left,139,3,yes,180,240,even,asymm,153,37,upper,315
421.737525752,1,opposite,0,garage,no,compatible,slash,85,150,-29.8,sm2.asc,no,overlap,right,597.549900119,change,32,B,right,50,50,4000,50,20,hammer,0,asymm_garage_hammer,3,right,160,3,yes,180,240,even,asymm,154,38,upper,267
523.51524338,0,control,0,garage,no,compatible,slash,85,150,-23.7,sm2.asc,no,overlap,right,566.13019712,no_change,32,A,control,50,50,4000,50,20,mallet,0,asymm_garage_mallet,3,right,127,3,yes,180,240,even,asymm,155,39,upper,318
777.222447783,1,overlap,0,garage,no,incompatible,slash,85,150,-14.4,sm2.asc,no,zero,left,466.554487712,no_change,32,F,right,50,50,4000,50,20,wrench,0,asymm_garage_wrench,3,right,159,3,yes,180,240,even,asymm,156,40,lower,-305
422.770484654,1,overlap,0,kitchen,no,compatible,z,85,150,-19.7,sm2.asc,no,overlap,left,588.657868853,no_change,32,F,right,50,50,4000,50,20,carrot,0,symm_kitchen_carrot,3,left,198,3,yes,180,240,even,symm,157,41,lower,-293
781.93676486,1,control,0,garage,no,incompatible,slash,85,150,0.4,sm2.asc,no,overlap,left,503.126618548,no_change,32,E,control,50,50,4000,50,20,chisel2,0,asymm_garage_chisel2,3,right,187,3,yes,180,240,even,asymm,158,42,lower,-320
543.611470504,1,overlap,0,garage,no,compatible,slash,85,150,-36.1,sm2.asc,no,zero,right,587.32805813,change,32,D,left,50,50,4000,50,20,paintbrush,0,asymm_garage_paintbrush,3,right,150,3,yes,180,240,even,asymm,159,43,lower,-324
452.78203636,1,opposite,0,kitchen,no,compatible,z,85,150,-11.9,sm2.asc,no,overlap,left,598.662365065,no_change,32,C,left,50,50,4000,50,20,knife,0,asymm_kitchen_knife,2,left,224,3,yes,180,240,even,asymm,160,44,lower,-270
467.354496925,1,overlap,0,kitchen,no,incompatible,z,85,150,-50.3,sm2.asc,no,overlap,right,547.342067693,change,32,D,left,50,50,4000,50,20,washingbrush,0,asymm_kitchen_washingbrush,3,left,157,3,yes,180,240,even,asymm,161,45,lower,-254
415.486461858,1,control,0,kitchen,no,incompatible,z,85,150,-25.2,sm2.asc,no,overlap,right,408.402819118,no_change,32,A,control,50,50,4000,50,20,roller,0,symm_kitchen_roller,3,left,190,3,yes,180,240,even,symm,162,46,upper,250
428.800655629,1,overlap,0,kitchen,no,incompatible,z,85,150,-22.5,sm2.asc,no,zero,right,447.703876337,no_change,32,D,left,50,50,4000,50,20,spoon2,0,asymm_kitchen_spoon2,4,left,147,3,yes,180,240,even,asymm,163,47,upper,259
369.132554397,1,opposite,0,garage,no,compatible,slash,85,150,-12.1,sm2.asc,no,overlap,right,523.365616882,no_change,32,B,right,50,50,4000,50,20,screwdriver,0,asymm_garage_screwdriver,3,right,171,3,yes,180,240,even,asymm,164,48,upper,314
471.832056661,1,control,0,garage,no,incompatible,slash,85,150,-22.2,sm2.asc,no,overlap,left,404.152667006,change,32,E,control,50,50,4000,50,20,leveller,0,symm_garage_leveller,3,right,168,3,yes,180,240,even,symm,165,49,upper,251
424.168556864,1,opposite,0,garage,no,incompatible,slash,85,150,-13.7,sm2.asc,no,overlap,left,420.480960644,no_change,32,C,left,50,50,4000,50,20,ruler,0,symm_garage_ruler,3,right,174,3,yes,180,240,even,symm,166,50,upper,267
349.831346897,1,opposite,0,kitchen,no,incompatible,z,85,150,-33.3,sm2.asc,no,zero,right,428.000547346,no_change,32,B,right,50,50,4000,50,20,fork,0,asymm_kitchen_fork,3,left,136,3,yes,180,240,even,asymm,167,51,upper,289
535.308771297,1,overlap,0,kitchen,no,compatible,z,85,150,-47.2,sm2.asc,no,zero,left,459.268583691,no_change,32,F,right,50,50,4000,50,20,sharpeningsteel,0,asymm_kitchen_sharpeningsteel,3,left,165,3,yes,180,240,even,asymm,168,52,lower,-288
412.792812138,1,opposite,0,garage,no,compatible,slash,85,150,-42.2,sm2.asc,no,overlap,right,652.143524216,change,32,B,right,50,50,4000,50,20,mallet,0,asymm_garage_mallet,4,right,188,3,yes,180,240,even,asymm,169,53,lower,-267
545.753567616,1,control,0,garage,no,incompatible,slash,85,150,-47.1,sm2.asc,no,overlap,left,504.744885847,change,32,E,control,50,50,4000,50,20,chisel,0,asymm_garage_chisel,3,right,188,3,yes,180,240,even,asymm,170,54,lower,-277
500.607741237,1,opposite,0,kitchen,no,compatible,z,85,150,-2.0,sm2.asc,no,zero,left,276.745708527,change,32,C,left,50,50,4000,50,20,spoon,0,asymm_kitchen_spoon,3,left,206,3,yes,180,240,even,asymm,171,55,lower,-279
500.607741237,1,None,0,None,yes,None,None,85,150,-1000.0,sm2.asc,no,overlap,None,633.283820249,change,32,None,None,50,50,4000,50,20,None,0,catch_trial,0,None,-1,3,yes,180,240,even,catch,172,56,None,314
435.910990812,1,overlap,0,garage,no,incompatible,slash,85,150,-25.4,sm2.asc,no,overlap,left,516.382517617,change,32,F,right,50,50,4000,50,20,chisel2,0,asymm_garage_chisel2,4,right,267,3,yes,180,240,even,asymm,173,57,lower,-258
442.430979985,1,control,0,garage,no,incompatible,slash,85,150,-12.1,sm2.asc,no,overlap,left,464.667541056,no_change,32,E,control,50,50,4000,50,20,paintbrush,0,asymm_garage_paintbrush,4,right,155,3,yes,180,240,even,asymm,174,58,upper,304
458.933585961,1,overlap,0,kitchen,no,incompatible,z,85,150,-12.3,sm2.asc,no,zero,right,552.534414777,no_change,32,D,left,50,50,4000,50,20,knife,0,asymm_kitchen_knife,3,left,158,3,yes,180,240,even,asymm,175,59,lower,-255
496.883337093,1,control,0,kitchen,no,incompatible,z,85,150,-33.2,sm2.asc,no,zero,right,435.535866813,change,32,A,control,50,50,4000,50,20,peeler,0,asymm_kitchen_peeler,3,left,157,3,yes,180,240,even,asymm,176,60,lower,-306
330.058209651,1,opposite,0,garage,no,incompatible,slash,85,150,3.7,sm2.asc,no,zero,left,469.362622274,no_change,32,C,left,50,50,4000,50,20,hammer,0,asymm_garage_hammer,4,right,133,3,yes,180,240,even,asymm,177,61,upper,293
780.497760936,1,opposite,0,kitchen,no,incompatible,z,85,150,-26.5,sm2.asc,no,overlap,right,460.637756829,change,32,B,right,50,50,4000,50,20,roller,0,symm_kitchen_roller,4,left,155,3,yes,180,240,even,symm,178,62,upper,318
576.739465572,1,control,0,garage,no,compatible,slash,85,150,-28.1,sm2.asc,no,zero,right,574.391610657,no_change,32,A,control,50,50,4000,50,20,wrench,0,asymm_garage_wrench,4,right,143,3,yes,180,240,even,asymm,179,63,lower,-302
448.905333754,1,control,0,kitchen,no,incompatible,z,85,150,-28.1,sm2.asc,no,overlap,right,595.456930687,change,32,A,control,50,50,4000,50,20,carrot,0,symm_kitchen_carrot,4,left,200,3,yes,180,240,even,symm,180,64,lower,-328
396.625295861,1,overlap,0,garage,no,incompatible,slash,85,150,-34.3,sm2.asc,no,zero,left,379.520193469,no_change,32,F,right,50,50,4000,50,20,leveller,0,symm_garage_leveller,4,right,162,3,yes,180,240,even,symm,181,65,upper,332
396.994884288,1,control,0,kitchen,no,compatible,z,85,150,-8.1,sm2.asc,no,overlap,left,609.675356866,change,32,E,control,50,50,4000,50,20,washingbrush,0,asymm_kitchen_washingbrush,4,left,150,3,yes,180,240,even,asymm,182,66,upper,335
584.277174779,1,opposite,0,garage,no,incompatible,slash,85,150,-27.7,sm2.asc,no,zero,left,342.643597061,no_change,32,C,left,50,50,4000,50,20,screwdriver,0,asymm_garage_screwdriver,4,right,170,3,yes,180,240,even,asymm,183,67,upper,265
605.63583104,1,control,0,kitchen,no,incompatible,z,85,150,-14.3,sm2.asc,no,overlap,right,398.594583894,no_change,32,A,control,50,50,4000,50,20,sharpeningsteel,0,asymm_kitchen_sharpeningsteel,4,left,173,3,yes,180,240,even,asymm,184,68,upper,292
605.63583104,1,None,0,None,yes,None,None,85,150,-1000.0,sm2.asc,no,overlap,None,532.791287338,no_change,32,None,None,50,50,4000,50,20,None,0,catch_trial,0,None,-1,3,yes,180,240,even,catch,185,69,None,320
443.512593795,1,opposite,0,garage,no,incompatible,slash,85,150,0.2,sm2.asc,no,zero,left,557.630124379,no_change,32,C,left,50,50,4000,50,20,mallet,0,asymm_garage_mallet,5,right,217,3,yes,180,240,even,asymm,186,70,lower,-251
491.994601585,1,control,0,kitchen,no,compatible,z,85,150,-15.7,sm2.asc,no,overlap,left,533.721234363,no_change,32,E,control,50,50,4000,50,20,spoon2,0,asymm_kitchen_spoon2,5,left,184,3,yes,180,240,even,asymm,187,71,lower,-330
405.504115728,1,control,0,garage,no,compatible,slash,85,150,-39.9,sm2.asc,no,overlap,right,419.652817802,change,32,A,control,50,50,4000,50,20,chisel2,0,asymm_garage_chisel2,5,right,190,3,yes,180,240,even,asymm,188,72,lower,-273
382.304930753,1,overlap,0,kitchen,no,incompatible,z,85,150,-26.2,sm2.asc,no,zero,right,641.451282833,no_change,32,D,left,50,50,4000,50,20,spoon,0,asymm_kitchen_spoon,4,left,128,3,yes,180,240,even,asymm,189,73,upper,274
399.378809341,1,overlap,0,garage,no,compatible,slash,85,150,-17.5,sm2.asc,no,overlap,right,527.558153386,no_change,32,D,left,50,50,4000,50,20,ruler,0,symm_garage_ruler,4,right,180,3,yes,180,240,even,symm,190,74,lower,-303
440.191530955,1,opposite,0,kitchen,no,compatible,z,85,150,-41.0,sm2.asc,no,zero,left,397.555615403,no_change,32,C,left,50,50,4000,50,20,fork,0,asymm_kitchen_fork,4,left,177,3,yes,180,240,even,asymm,191,75,lower,-323
197.06829371,1,opposite,0,kitchen,no,incompatible,z,85,150,-24.2,sm2.asc,no,overlap,right,563.161750252,change,32,B,right,50,50,4000,50,20,peeler,0,asymm_kitchen_peeler,4,left,143,3,yes,180,240,even,asymm,192,76,upper,324
378.149423317,1,opposite,0,kitchen,no,compatible,z,85,150,-18.6,sm2.asc,no,zero,left,377.239369121,no_change,32,C,left,50,50,4000,50,20,roller,0,symm_kitchen_roller,5,left,148,3,yes,180,240,even,symm,193,77,upper,296
386.767218538,1,overlap,0,garage,no,incompatible,slash,85,150,-34.7,sm2.asc,no,zero,left,569.835915915,change,32,F,right,50,50,4000,50,20,chisel,0,asymm_garage_chisel,4,right,146,3,yes,180,240,even,asymm,194,78,lower,-320
394.085544578,1,opposite,0,kitchen,no,incompatible,z,85,150,-24.1,sm2.asc,no,overlap,right,447.538050235,no_change,32,B,right,50,50,4000,50,20,carrot,0,symm_kitchen_carrot,5,left,185,3,yes,180,240,even,symm,195,79,upper,274
402.27109066,1,control,0,garage,no,compatible,slash,85,150,-32.9,sm2.asc,no,overlap,right,490.100154034,change,32,A,control,50,50,4000,50,20,leveller,0,symm_garage_leveller,5,right,202,3,yes,180,240,even,symm,196,80,lower,-302
531.319246327,1,overlap,0,garage,no,incompatible,slash,85,150,-27.5,sm2.asc,no,zero,left,712.943176591,change,32,F,right,50,50,4000,50,20,paintbrush,0,asymm_garage_paintbrush,5,right,161,3,yes,180,240,even,asymm,197,81,lower,-293
401.126912378,1,control,0,kitchen,no,compatible,z,85,150,-31.3,sm2.asc,no,overlap,left,622.311966283,change,32,E,control,50,50,4000,50,20,knife,0,asymm_kitchen_knife,4,left,187,3,yes,180,240,even,asymm,198,82,upper,265
386.022507932,1,overlap,0,kitchen,no,compatible,z,85,150,-31.8,sm2.asc,no,zero,left,446.809300368,change,32,F,right,50,50,4000,50,20,washingbrush,0,asymm_kitchen_washingbrush,5,left,160,3,yes,180,240,even,asymm,199,83,upper,317
411.678765733,1,overlap,0,garage,no,compatible,slash,85,150,-32.1,sm2.asc,no,zero,right,486.532844198,change,32,D,left,50,50,4000,50,20,hammer,0,asymm_garage_hammer,5,right,153,3,yes,180,240,even,asymm,200,84,lower,-261
637.255848785,0,overlap,0,garage,no,compatible,slash,85,150,-24.5,sm2.asc,no,overlap,right,464.973719573,no_change,32,D,left,50,50,4000,50,20,screwdriver,0,asymm_garage_screwdriver,5,right,263,3,yes,180,240,even,asymm,201,85,lower,-285
417.406619449,1,opposite,0,garage,no,compatible,slash,85,150,-60.3,sm2.asc,no,zero,right,441.242094692,change,32,B,right,50,50,4000,50,20,wrench,0,asymm_garage_wrench,5,right,135,3,yes,180,240,even,asymm,202,86,upper,285
684.880684501,1,opposite,0,kitchen,no,incompatible,z,85,150,-30.3,sm2.asc,no,zero,right,467.361534403,no_change,32,B,right,50,50,4000,50,20,sharpeningsteel,0,asymm_kitchen_sharpeningsteel,5,left,127,3,yes,180,240,even,asymm,203,87,lower,-331
511.844859476,0,overlap,0,kitchen,no,compatible,z,85,150,-19.1,sm2.asc,no,overlap,left,494.82130767,no_change,32,F,right,50,50,4000,50,20,spoon2,0,asymm_kitchen_spoon2,6,left,200,3,yes,180,240,even,asymm,204,88,lower,-333
430.428730396,1,overlap,0,garage,no,compatible,slash,85,150,-34.2,sm2.asc,no,zero,right,599.270592546,change,32,D,left,50,50,4000,50,20,mallet,0,asymm_garage_mallet,6,right,171,3,yes,180,240,even,asymm,205,89,lower,-281
432.465659162,1,control,0,kitchen,no,compatible,z,85,150,-18.7,sm2.asc,no,overlap,left,573.691555086,change,32,E,control,50,50,4000,50,20,spoon,0,asymm_kitchen_spoon,5,left,137,3,yes,180,240,even,asymm,206,90,upper,316
563.779371739,1,overlap,0,kitchen,no,incompatible,z,85,150,-23.2,sm2.asc,no,zero,right,541.710010492,no_change,32,D,left,50,50,4000,50,20,roller,0,symm_kitchen_roller,6,left,140,3,yes,180,240,even,symm,207,91,upper,329
362.911014872,1,opposite,0,kitchen,no,compatible,z,85,150,-18.4,sm2.asc,no,zero,left,550.6000395,no_change,32,C,left,50,50,4000,50,20,peeler,0,asymm_kitchen_peeler,5,left,139,3,yes,180,240,even,asymm,208,92,upper,271
438.661638171,0,control,0,garage,no,incompatible,slash,85,150,-47.9,sm2.asc,no,zero,left,716.1361181,change,32,E,control,50,50,4000,50,20,ruler,0,symm_garage_ruler,5,right,119,3,yes,180,240,even,symm,209,93,upper,306
435.223328973,1,opposite,0,garage,no,compatible,slash,85,150,-49.0,sm2.asc,no,overlap,right,443.848428753,no_change,32,B,right,50,50,4000,50,20,chisel2,0,asymm_garage_chisel2,6,right,195,3,yes,180,240,even,asymm,210,94,lower,-313
274.809001368,0,control,0,garage,no,compatible,slash,85,150,-29.0,sm2.asc,no,overlap,right,483.565709278,change,32,A,control,50,50,4000,50,20,chisel,0,asymm_garage_chisel,5,right,153,3,yes,180,240,even,asymm,211,95,upper,286
462.027551465,1,overlap,0,kitchen,no,compatible,z,85,150,-61.6,sm2.asc,no,zero,left,419.715267312,change,32,F,right,50,50,4000,50,20,knife,0,asymm_kitchen_knife,5,left,167,3,yes,180,240,even,asymm,212,96,lower,-284
657.964887746,1,overlap,0,kitchen,no,incompatible,z,85,150,-6.8,sm2.asc,no,overlap,right,596.880429026,change,32,D,left,50,50,4000,50,20,fork,0,asymm_kitchen_fork,5,left,147,3,yes,180,240,even,asymm,213,97,upper,334
847.254074374,1,control,0,kitchen,no,incompatible,z,85,150,-50.5,sm2.asc,no,zero,right,388.590101194,change,32,A,control,50,50,4000,50,20,washingbrush,0,asymm_kitchen_washingbrush,6,left,165,3,yes,180,240,even,asymm,214,98,lower,-252
847.254074374,1,None,0,None,yes,None,None,85,150,-1000.0,sm2.asc,no,overlap,None,421.54581263,change,32,None,None,50,50,4000,50,20,None,0,catch_trial,0,None,-1,3,yes,180,240,even,catch,215,99,None,327
478.749215801,0,control,0,garage,no,incompatible,slash,85,150,-38.2,sm2.asc,no,zero,left,499.346165487,change,32,E,control,50,50,4000,50,20,screwdriver,0,asymm_garage_screwdriver,6,right,158,3,yes,180,240,even,asymm,216,100,upper,252
427.557029217,1,opposite,0,garage,no,incompatible,slash,85,150,3.0,sm2.asc,no,overlap,left,487.872351369,change,32,C,left,50,50,4000,50,20,wrench,0,asymm_garage_wrench,6,right,127,3,yes,180,240,even,asymm,217,101,upper,281
375.561916362,1,opposite,0,kitchen,no,compatible,z,85,150,-25.5,sm2.asc,no,overlap,left,488.284580852,change,32,C,left,50,50,4000,50,20,carrot,0,symm_kitchen_carrot,6,left,144,3,yes,180,240,even,symm,218,102,upper,303
418.255599164,1,opposite,0,garage,no,compatible,slash,85,150,-45.4,sm2.asc,no,zero,right,525.00489231,no_change,32,B,right,50,50,4000,50,20,leveller,0,symm_garage_leveller,6,right,141,3,yes,180,240,even,symm,219,103,lower,-311
359.072164328,1,control,0,garage,no,compatible,slash,85,150,-37.4,sm2.asc,no,zero,right,420.268333275,no_change,32,A,control,50,50,4000,50,20,paintbrush,0,asymm_garage_paintbrush,6,right,153,3,yes,180,240,even,asymm,220,104,lower,-295
528.582051397,1,overlap,0,kitchen,no,compatible,z,85,150,-0.3,sm2.asc,no,overlap,left,432.054290302,change,32,F,right,50,50,4000,50,20,spoon,0,asymm_kitchen_spoon,6,left,220,3,yes,180,240,even,asymm,221,105,lower,-335
705.811365243,1,control,0,garage,no,incompatible,slash,85,150,-34.5,sm2.asc,no,zero,left,513.524728889,no_change,32,E,control,50,50,4000,50,20,hammer,0,asymm_garage_hammer,6,right,141,3,yes,180,240,even,asymm,222,106,lower,-262
515.349531585,1,overlap,0,kitchen,no,incompatible,z,85,150,-22.6,sm2.asc,no,overlap,right,640.072546087,change,32,D,left,50,50,4000,50,20,peeler,0,asymm_kitchen_peeler,6,left,135,3,yes,180,240,even,asymm,223,107,upper,306
515.349531585,1,None,0,None,yes,None,None,85,150,-1000.0,sm2.asc,no,overlap,None,607.414783072,no_change,32,None,None,50,50,4000,50,20,None,0,catch_trial,0,None,-1,3,yes,180,240,even,catch,224,108,None,310
515.349531585,1,None,0,None,yes,None,None,85,150,-1000.0,sm2.asc,no,overlap,None,469.864520499,no_change,32,None,None,50,50,4000,50,20,None,0,catch_trial,0,None,-1,3,yes,180,240,even,catch,225,109,None,326
348.324322942,1,overlap,0,garage,no,incompatible,slash,85,150,-50.4,sm2.asc,no,overlap,left,435.047133082,change,32,F,right,50,50,4000,50,20,ruler,0,symm_garage_ruler,6,right,224,3,yes,180,240,even,symm,226,110,upper,319
348.324322942,1,None,0,None,yes,None,None,85,150,-1000.0,sm2.asc,no,overlap,None,692.276356655,no_change,32,None,None,50,50,4000,50,20,None,0,catch_trial,0,None,-1,3,yes,180,240,even,catch,227,111,None,327
418.641229456,1,opposite,0,kitchen,no,compatible,z,85,150,-39.3,sm2.asc,no,overlap,left,560.983826302,change,32,C,left,50,50,4000,50,20,sharpeningsteel,0,asymm_kitchen_sharpeningsteel,6,left,186,3,yes,180,240,even,asymm,228,112,upper,253
414.90096991,0,opposite,0,garage,no,compatible,slash,85,150,-17.2,sm2.asc,no,overlap,right,540.328194059,no_change,32,B,right,50,50,4000,50,20,chisel,0,asymm_garage_chisel,6,right,165,3,yes,180,240,even,asymm,229,113,upper,261
371.53540849,1,control,0,kitchen,no,incompatible,z,85,150,-27.9,sm2.asc,no,overlap,right,492.021376933,no_change,32,A,control,50,50,4000,50,20,knife,0,asymm_kitchen_knife,6,left,173,3,yes,180,240,even,asymm,230,114,lower,-304
296.178523631,1,control,0,kitchen,no,compatible,z,85,150,-22.3,sm2.asc,no,zero,left,511.224366892,no_change,32,E,control,50,50,4000,50,20,fork,0,asymm_kitchen_fork,6,left,131,3,yes,180,240,even,asymm,231,115,upper,291
